STUDYID,DOMAIN,USUBJID,VSSEQ,VSTESTCD,VSTEST,VSORRES,VSORRESU,VSSTRESC,VSSTRESN,VSSTRESU,VSBLFL,VISIT,VISITNUM,VSDTC,VSDY
STUDY001,VS,STUDY001-SUBJ0001,1,HEIGHT,Height,198.4,cm,198.4,198.4,cm,,SCREENING,1,2025-05-18,-14
STUDY001,VS,STUDY001-SUBJ0001,2,WEIGHT,Weight,78.0,kg,78.0,78.0,kg,,SCREENING,1,2025-05-18,-14
STUDY001,VS,STUDY001-SUBJ0001,3,TEMP,Temperature,36.3,C,36.3,36.3,C,,SCREENING,1,2025-05-18,-14
STUDY001,VS,STUDY001-SUBJ0001,4,BP,Blood Pressure,127/80,mmHg,127/80,,mmHg,,SCREENING,1,2025-05-18,-14
STUDY001,VS,STUDY001-SUBJ0001,5,HR,Heart Rate,71,beats/min,71,71.0,beats/min,,SCREENING,1,2025-05-18,-14
STUDY001,VS,STUDY001-SUBJ0001,6,HEIGHT,Height,198.3,cm,198.3,198.3,cm,Y,BASELINE,2,2025-06-01,1
STUDY001,VS,STUDY001-SUBJ0001,7,WEIGHT,Weight,78.8,kg,78.8,78.8,kg,Y,BASELINE,2,2025-06-01,1
STUDY001,VS,STUDY001-SUBJ0001,8,TEMP,Temperature,36.5,C,36.5,36.5,C,Y,BASELINE,2,2025-06-01,1
STUDY001,VS,STUDY001-SUBJ0001,9,BP,Blood Pressure,129/83,mmHg,129/83,,mmHg,Y,BASELINE,2,2025-06-01,1
STUDY001,VS,STUDY001-SUBJ0001,10,HR,Heart Rate,72,beats/min,72,72.0,beats/min,Y,BASELINE,2,2025-06-01,1
STUDY001,VS,STUDY001-SUBJ0001,11,HEIGHT,Height,198.5,cm,198.5,198.5,cm,,WEEK 1,3,2025-06-07,7
STUDY001,VS,STUDY001-SUBJ0001,12,WEIGHT,Weight,78.4,kg,78.4,78.4,kg,,WEEK 1,3,2025-06-07,7
STUDY001,VS,STUDY001-SUBJ0001,13,TEMP,Temperature,36.5,C,36.5,36.5,C,,WEEK 1,3,2025-06-07,7
STUDY001,VS,STUDY001-SUBJ0001,14,BP,Blood Pressure,132/85,mmHg,132/85,,mmHg,,WEEK 1,3,2025-06-07,7
STUDY001,VS,STUDY001-SUBJ0001,15,HR,Heart Rate,74,beats/min,74,74.0,beats/min,,WEEK 1,3,2025-06-07,7
STUDY001,VS,STUDY001-SUBJ0001,16,HEIGHT,Height,198.4,cm,198.4,198.4,cm,,WEEK 2,4,2025-06-14,14
STUDY001,VS,STUDY001-SUBJ0001,17,WEIGHT,Weight,79.5,kg,79.5,79.5,kg,,WEEK 2,4,2025-06-14,14
STUDY001,VS,STUDY001-SUBJ0001,18,TEMP,Temperature,36.5,C,36.5,36.5,C,,WEEK 2,4,2025-06-14,14
STUDY001,VS,STUDY001-SUBJ0001,19,BP,Blood Pressure,129/84,mmHg,129/84,,mmHg,,WEEK 2,4,2025-06-14,14
STUDY001,VS,STUDY001-SUBJ0001,20,HR,Heart Rate,73,beats/min,73,73.0,beats/min,,WEEK 2,4,2025-06-14,14
STUDY001,VS,STUDY001-SUBJ0001,21,HEIGHT,Height,198.2,cm,198.2,198.2,cm,,WEEK 4,5,2025-06-28,28
STUDY001,VS,STUDY001-SUBJ0001,22,WEIGHT,Weight,79.5,kg,79.5,79.5,kg,,WEEK 4,5,2025-06-28,28
STUDY001,VS,STUDY001-SUBJ0001,23,TEMP,Temperature,36.3,C,36.3,36.3,C,,WEEK 4,5,2025-06-28,28
STUDY001,VS,STUDY001-SUBJ0001,24,BP,Blood Pressure,126/85,mmHg,126/85,,mmHg,,WEEK 4,5,2025-06-28,28
STUDY001,VS,STUDY001-SUBJ0001,25,HR,Heart Rate,73,beats/min,73,73.0,beats/min,,WEEK 4,5,2025-06-28,28
STUDY001,VS,STUDY001-SUBJ0001,26,HEIGHT,Height,198.2,cm,198.2,198.2,cm,,WEEK 8,6,2025-07-26,56
STUDY001,VS,STUDY001-SUBJ0001,27,WEIGHT,Weight,78.9,kg,78.9,78.9,kg,,WEEK 8,6,2025-07-26,56
STUDY001,VS,STUDY001-SUBJ0001,28,TEMP,Temperature,36.7,C,36.7,36.7,C,,WEEK 8,6,2025-07-26,56
STUDY001,VS,STUDY001-SUBJ0001,29,BP,Blood Pressure,128/82,mmHg,128/82,,mmHg,,WEEK 8,6,2025-07-26,56
STUDY001,VS,STUDY001-SUBJ0001,30,HR,Heart Rate,79,beats/min,79,79.0,beats/min,,WEEK 8,6,2025-07-26,56
STUDY001,VS,STUDY001-SUBJ0001,31,HEIGHT,Height,198.2,cm,198.2,198.2,cm,,WEEK 12,7,2025-08-23,84
STUDY001,VS,STUDY001-SUBJ0001,32,WEIGHT,Weight,78.1,kg,78.1,78.1,kg,,WEEK 12,7,2025-08-23,84
STUDY001,VS,STUDY001-SUBJ0001,33,TEMP,Temperature,36.5,C,36.5,36.5,C,,WEEK 12,7,2025-08-23,84
STUDY001,VS,STUDY001-SUBJ0001,34,BP,Blood Pressure,129/80,mmHg,129/80,,mmHg,,WEEK 12,7,2025-08-23,84
STUDY001,VS,STUDY001-SUBJ0001,35,HR,Heart Rate,74,beats/min,74,74.0,beats/min,,WEEK 12,7,2025-08-23,84
STUDY001,VS,STUDY001-SUBJ0001,36,HEIGHT,Height,198.4,cm,198.4,198.4,cm,,WEEK 16,8,2025-09-20,112
STUDY001,VS,STUDY001-SUBJ0001,37,WEIGHT,Weight,79.2,kg,79.2,79.2,kg,,WEEK 16,8,2025-09-20,112
STUDY001,VS,STUDY001-SUBJ0001,38,TEMP,Temperature,36.3,C,36.3,36.3,C,,WEEK 16,8,2025-09-20,112
STUDY001,VS,STUDY001-SUBJ0001,39,BP,Blood Pressure,122/89,mmHg,122/89,,mmHg,,WEEK 16,8,2025-09-20,112
STUDY001,VS,STUDY001-SUBJ0001,40,HR,Heart Rate,76,beats/min,76,76.0,beats/min,,WEEK 16,8,2025-09-20,112
STUDY001,VS,STUDY001-SUBJ0001,41,HEIGHT,Height,198.4,cm,198.4,198.4,cm,,END OF TREATMENT,9,2025-10-18,140
STUDY001,VS,STUDY001-SUBJ0001,42,WEIGHT,Weight,78.8,kg,78.8,78.8,kg,,END OF TREATMENT,9,2025-10-18,140
STUDY001,VS,STUDY001-SUBJ0001,43,TEMP,Temperature,36.4,C,36.4,36.4,C,,END OF TREATMENT,9,2025-10-18,140
STUDY001,VS,STUDY001-SUBJ0001,44,BP,Blood Pressure,128/85,mmHg,128/85,,mmHg,,END OF TREATMENT,9,2025-10-18,140
STUDY001,VS,STUDY001-SUBJ0001,45,HR,Heart Rate,74,beats/min,74,74.0,beats/min,,END OF TREATMENT,9,2025-10-18,140
STUDY001,VS,STUDY001-SUBJ0002,1,HEIGHT,Height,153.6,cm,153.6,153.6,cm,,SCREENING,1,2025-11-05,-14
STUDY001,VS,STUDY001-SUBJ0002,2,WEIGHT,Weight,72.0,kg,72.0,72.0,kg,,SCREENING,1,2025-11-05,-14
STUDY001,VS,STUDY001-SUBJ0002,3,TEMP,Temperature,36.2,C,36.2,36.2,C,,SCREENING,1,2025-11-05,-14
STUDY001,VS,STUDY001-SUBJ0002,4,BP,Blood Pressure,108/93,mmHg,108/93,,mmHg,,SCREENING,1,2025-11-05,-14
STUDY001,VS,STUDY001-SUBJ0002,5,HR,Heart Rate,86,beats/min,86,86.0,beats/min,,SCREENING,1,2025-11-05,-14
STUDY001,VS,STUDY001-SUBJ0002,6,HEIGHT,Height,153.7,cm,153.7,153.7,cm,Y,BASELINE,2,2025-11-19,1
STUDY001,VS,STUDY001-SUBJ0002,7,WEIGHT,Weight,70.9,kg,70.9,70.9,kg,Y,BASELINE,2,2025-11-19,1
STUDY001,VS,STUDY001-SUBJ0002,8,TEMP,Temperature,36.5,C,36.5,36.5,C,Y,BASELINE,2,2025-11-19,1
STUDY001,VS,STUDY001-SUBJ0002,9,BP,Blood Pressure,114/95,mmHg,114/95,,mmHg,Y,BASELINE,2,2025-11-19,1
STUDY001,VS,STUDY001-SUBJ0002,10,HR,Heart Rate,89,beats/min,89,89.0,beats/min,Y,BASELINE,2,2025-11-19,1
STUDY001,VS,STUDY001-SUBJ0002,11,HEIGHT,Height,153.8,cm,153.8,153.8,cm,,WEEK 1,3,2025-11-25,7
STUDY001,VS,STUDY001-SUBJ0002,12,WEIGHT,Weight,71.0,kg,71.0,71.0,kg,,WEEK 1,3,2025-11-25,7
STUDY001,VS,STUDY001-SUBJ0002,13,TEMP,Temperature,36.5,C,36.5,36.5,C,,WEEK 1,3,2025-11-25,7
STUDY001,VS,STUDY001-SUBJ0002,14,BP,Blood Pressure,115/102,mmHg,115/102,,mmHg,,WEEK 1,3,2025-11-25,7
STUDY001,VS,STUDY001-SUBJ0002,15,HR,Heart Rate,90,beats/min,90,90.0,beats/min,,WEEK 1,3,2025-11-25,7
STUDY001,VS,STUDY001-SUBJ0002,16,HEIGHT,Height,153.5,cm,153.5,153.5,cm,,WEEK 2,4,2025-12-02,14
STUDY001,VS,STUDY001-SUBJ0002,17,WEIGHT,Weight,72.2,kg,72.2,72.2,kg,,WEEK 2,4,2025-12-02,14
STUDY001,VS,STUDY001-SUBJ0002,18,TEMP,Temperature,36.6,C,36.6,36.6,C,,WEEK 2,4,2025-12-02,14
STUDY001,VS,STUDY001-SUBJ0002,19,BP,Blood Pressure,113/101,mmHg,113/101,,mmHg,,WEEK 2,4,2025-12-02,14
STUDY001,VS,STUDY001-SUBJ0002,20,HR,Heart Rate,89,beats/min,89,89.0,beats/min,,WEEK 2,4,2025-12-02,14
STUDY001,VS,STUDY001-SUBJ0002,21,HEIGHT,Height,153.7,cm,153.7,153.7,cm,,WEEK 4,5,2025-12-16,28
STUDY001,VS,STUDY001-SUBJ0002,22,WEIGHT,Weight,71.7,kg,71.7,71.7,kg,,WEEK 4,5,2025-12-16,28
STUDY001,VS,STUDY001-SUBJ0002,23,TEMP,Temperature,36.6,C,36.6,36.6,C,,WEEK 4,5,2025-12-16,28
STUDY001,VS,STUDY001-SUBJ0002,24,BP,Blood Pressure,110/96,mmHg,110/96,,mmHg,,WEEK 4,5,2025-12-16,28
STUDY001,VS,STUDY001-SUBJ0002,25,HR,Heart Rate,87,beats/min,87,87.0,beats/min,,WEEK 4,5,2025-12-16,28
STUDY001,VS,STUDY001-SUBJ0002,26,HEIGHT,Height,153.6,cm,153.6,153.6,cm,,WEEK 8,6,2026-01-13,56
STUDY001,VS,STUDY001-SUBJ0002,27,WEIGHT,Weight,70.5,kg,70.5,70.5,kg,,WEEK 8,6,2026-01-13,56
STUDY001,VS,STUDY001-SUBJ0002,28,TEMP,Temperature,36.2,C,36.2,36.2,C,,WEEK 8,6,2026-01-13,56
STUDY001,VS,STUDY001-SUBJ0002,29,BP,Blood Pressure,110/102,mmHg,110/102,,mmHg,,WEEK 8,6,2026-01-13,56
STUDY001,VS,STUDY001-SUBJ0002,30,HR,Heart Rate,84,beats/min,84,84.0,beats/min,,WEEK 8,6,2026-01-13,56
STUDY001,VS,STUDY001-SUBJ0002,31,HEIGHT,Height,153.4,cm,153.4,153.4,cm,,WEEK 12,7,2026-02-10,84
STUDY001,VS,STUDY001-SUBJ0002,32,WEIGHT,Weight,71.0,kg,71.0,71.0,kg,,WEEK 12,7,2026-02-10,84
STUDY001,VS,STUDY001-SUBJ0002,33,TEMP,Temperature,36.6,C,36.6,36.6,C,,WEEK 12,7,2026-02-10,84
STUDY001,VS,STUDY001-SUBJ0002,34,BP,Blood Pressure,110/99,mmHg,110/99,,mmHg,,WEEK 12,7,2026-02-10,84
STUDY001,VS,STUDY001-SUBJ0002,35,HR,Heart Rate,87,beats/min,87,87.0,beats/min,,WEEK 12,7,2026-02-10,84
STUDY001,VS,STUDY001-SUBJ0002,36,HEIGHT,Height,153.7,cm,153.7,153.7,cm,,WEEK 16,8,2026-03-10,112
STUDY001,VS,STUDY001-SUBJ0002,37,WEIGHT,Weight,71.8,kg,71.8,71.8,kg,,WEEK 16,8,2026-03-10,112
STUDY001,VS,STUDY001-SUBJ0002,38,TEMP,Temperature,36.4,C,36.4,36.4,C,,WEEK 16,8,2026-03-10,112
STUDY001,VS,STUDY001-SUBJ0002,39,BP,Blood Pressure,108/100,mmHg,108/100,,mmHg,,WEEK 16,8,2026-03-10,112
STUDY001,VS,STUDY001-SUBJ0002,40,HR,Heart Rate,82,beats/min,82,82.0,beats/min,,WEEK 16,8,2026-03-10,112
STUDY001,VS,STUDY001-SUBJ0002,41,HEIGHT,Height,153.4,cm,153.4,153.4,cm,,END OF TREATMENT,9,2026-04-07,140
STUDY001,VS,STUDY001-SUBJ0002,42,WEIGHT,Weight,71.5,kg,71.5,71.5,kg,,END OF TREATMENT,9,2026-04-07,140
STUDY001,VS,STUDY001-SUBJ0002,43,TEMP,Temperature,36.1,C,36.1,36.1,C,,END OF TREATMENT,9,2026-04-07,140
STUDY001,VS,STUDY001-SUBJ0002,44,BP,Blood Pressure,115/97,mmHg,115/97,,mmHg,,END OF TREATMENT,9,2026-04-07,140
STUDY001,VS,STUDY001-SUBJ0002,45,HR,Heart Rate,91,beats/min,91,91.0,beats/min,,END OF TREATMENT,9,2026-04-07,140
STUDY001,VS,STUDY001-SUBJ0003,1,HEIGHT,Height,164.6,cm,164.6,164.6,cm,,SCREENING,1,2025-12-20,-14
STUDY001,VS,STUDY001-SUBJ0003,2,WEIGHT,Weight,117.5,kg,117.5,117.5,kg,,SCREENING,1,2025-12-20,-14
STUDY001,VS,STUDY001-SUBJ0003,3,TEMP,Temperature,36.6,C,36.6,36.6,C,,SCREENING,1,2025-12-20,-14
STUDY001,VS,STUDY001-SUBJ0003,4,BP,Blood Pressure,113/88,mmHg,113/88,,mmHg,,SCREENING,1,2025-12-20,-14
STUDY001,VS,STUDY001-SUBJ0003,5,HR,Heart Rate,75,beats/min,75,75.0,beats/min,,SCREENING,1,2025-12-20,-14
STUDY001,VS,STUDY001-SUBJ0003,6,HEIGHT,Height,164.6,cm,164.6,164.6,cm,Y,BASELINE,2,2026-01-03,1
STUDY001,VS,STUDY001-SUBJ0003,7,WEIGHT,Weight,116.9,kg,116.9,116.9,kg,Y,BASELINE,2,2026-01-03,1
STUDY001,VS,STUDY001-SUBJ0003,8,TEMP,Temperature,36.4,C,36.4,36.4,C,Y,BASELINE,2,2026-01-03,1
STUDY001,VS,STUDY001-SUBJ0003,9,BP,Blood Pressure,119/80,mmHg,119/80,,mmHg,Y,BASELINE,2,2026-01-03,1
STUDY001,VS,STUDY001-SUBJ0003,10,HR,Heart Rate,73,beats/min,73,73.0,beats/min,Y,BASELINE,2,2026-01-03,1
STUDY001,VS,STUDY001-SUBJ0003,11,HEIGHT,Height,164.7,cm,164.7,164.7,cm,,WEEK 1,3,2026-01-09,7
STUDY001,VS,STUDY001-SUBJ0003,12,WEIGHT,Weight,116.3,kg,116.3,116.3,kg,,WEEK 1,3,2026-01-09,7
STUDY001,VS,STUDY001-SUBJ0003,13,TEMP,Temperature,36.6,C,36.6,36.6,C,,WEEK 1,3,2026-01-09,7
STUDY001,VS,STUDY001-SUBJ0003,14,BP,Blood Pressure,112/87,mmHg,112/87,,mmHg,,WEEK 1,3,2026-01-09,7
STUDY001,VS,STUDY001-SUBJ0003,15,HR,Heart Rate,75,beats/min,75,75.0,beats/min,,WEEK 1,3,2026-01-09,7
STUDY001,VS,STUDY001-SUBJ0003,16,HEIGHT,Height,164.8,cm,164.8,164.8,cm,,WEEK 2,4,2026-01-16,14
STUDY001,VS,STUDY001-SUBJ0003,17,WEIGHT,Weight,117.5,kg,117.5,117.5,kg,,WEEK 2,4,2026-01-16,14
STUDY001,VS,STUDY001-SUBJ0003,18,TEMP,Temperature,36.3,C,36.3,36.3,C,,WEEK 2,4,2026-01-16,14
STUDY001,VS,STUDY001-SUBJ0003,19,BP,Blood Pressure,112/86,mmHg,112/86,,mmHg,,WEEK 2,4,2026-01-16,14
STUDY001,VS,STUDY001-SUBJ0003,20,HR,Heart Rate,76,beats/min,76,76.0,beats/min,,WEEK 2,4,2026-01-16,14
STUDY001,VS,STUDY001-SUBJ0003,21,HEIGHT,Height,164.5,cm,164.5,164.5,cm,,WEEK 4,5,2026-01-30,28
STUDY001,VS,STUDY001-SUBJ0003,22,WEIGHT,Weight,117.1,kg,117.1,117.1,kg,,WEEK 4,5,2026-01-30,28
STUDY001,VS,STUDY001-SUBJ0003,23,TEMP,Temperature,36.2,C,36.2,36.2,C,,WEEK 4,5,2026-01-30,28
STUDY001,VS,STUDY001-SUBJ0003,24,BP,Blood Pressure,114/80,mmHg,114/80,,mmHg,,WEEK 4,5,2026-01-30,28
STUDY001,VS,STUDY001-SUBJ0003,25,HR,Heart Rate,72,beats/min,72,72.0,beats/min,,WEEK 4,5,2026-01-30,28
STUDY001,VS,STUDY001-SUBJ0003,26,HEIGHT,Height,164.7,cm,164.7,164.7,cm,,WEEK 8,6,2026-02-27,56
STUDY001,VS,STUDY001-SUBJ0003,27,WEIGHT,Weight,117.2,kg,117.2,117.2,kg,,WEEK 8,6,2026-02-27,56
STUDY001,VS,STUDY001-SUBJ0003,28,TEMP,Temperature,36.6,C,36.6,36.6,C,,WEEK 8,6,2026-02-27,56
STUDY001,VS,STUDY001-SUBJ0003,29,BP,Blood Pressure,114/80,mmHg,114/80,,mmHg,,WEEK 8,6,2026-02-27,56
STUDY001,VS,STUDY001-SUBJ0003,30,HR,Heart Rate,79,beats/min,79,79.0,beats/min,,WEEK 8,6,2026-02-27,56
STUDY001,VS,STUDY001-SUBJ0003,31,HEIGHT,Height,164.7,cm,164.7,164.7,cm,,WEEK 12,7,2026-03-27,84
STUDY001,VS,STUDY001-SUBJ0003,32,WEIGHT,Weight,117.5,kg,117.5,117.5,kg,,WEEK 12,7,2026-03-27,84
STUDY001,VS,STUDY001-SUBJ0003,33,TEMP,Temperature,36.6,C,36.6,36.6,C,,WEEK 12,7,2026-03-27,84
STUDY001,VS,STUDY001-SUBJ0003,34,BP,Blood Pressure,115/80,mmHg,115/80,,mmHg,,WEEK 12,7,2026-03-27,84
STUDY001,VS,STUDY001-SUBJ0003,35,HR,Heart Rate,73,beats/min,73,73.0,beats/min,,WEEK 12,7,2026-03-27,84
STUDY001,VS,STUDY001-SUBJ0003,36,HEIGHT,Height,164.4,cm,164.4,164.4,cm,,WEEK 16,8,2026-04-24,112
STUDY001,VS,STUDY001-SUBJ0003,37,WEIGHT,Weight,117.0,kg,117.0,117.0,kg,,WEEK 16,8,2026-04-24,112
STUDY001,VS,STUDY001-SUBJ0003,38,TEMP,Temperature,36.7,C,36.7,36.7,C,,WEEK 16,8,2026-04-24,112
STUDY001,VS,STUDY001-SUBJ0003,39,BP,Blood Pressure,113/79,mmHg,113/79,,mmHg,,WEEK 16,8,2026-04-24,112
STUDY001,VS,STUDY001-SUBJ0003,40,HR,Heart Rate,71,beats/min,71,71.0,beats/min,,WEEK 16,8,2026-04-24,112
STUDY001,VS,STUDY001-SUBJ0003,41,HEIGHT,Height,164.5,cm,164.5,164.5,cm,,END OF TREATMENT,9,2026-05-22,140
STUDY001,VS,STUDY001-SUBJ0003,42,WEIGHT,Weight,117.6,kg,117.6,117.6,kg,,END OF TREATMENT,9,2026-05-22,140
STUDY001,VS,STUDY001-SUBJ0003,43,TEMP,Temperature,36.6,C,36.6,36.6,C,,END OF TREATMENT,9,2026-05-22,140
STUDY001,VS,STUDY001-SUBJ0003,44,BP,Blood Pressure,114/85,mmHg,114/85,,mmHg,,END OF TREATMENT,9,2026-05-22,140
STUDY001,VS,STUDY001-SUBJ0003,45,HR,Heart Rate,71,beats/min,71,71.0,beats/min,,END OF TREATMENT,9,2026-05-22,140
STUDY001,VS,STUDY001-SUBJ0004,1,HEIGHT,Height,153.3,cm,153.3,153.3,cm,,SCREENING,1,2025-08-25,-14
STUDY001,VS,STUDY001-SUBJ0004,2,WEIGHT,Weight,112.8,kg,112.8,112.8,kg,,SCREENING,1,2025-08-25,-14
STUDY001,VS,STUDY001-SUBJ0004,3,TEMP,Temperature,36.6,C,36.6,36.6,C,,SCREENING,1,2025-08-25,-14
STUDY001,VS,STUDY001-SUBJ0004,4,BP,Blood Pressure,101/86,mmHg,101/86,,mmHg,,SCREENING,1,2025-08-25,-14
STUDY001,VS,STUDY001-SUBJ0004,5,HR,Heart Rate,84,beats/min,84,84.0,beats/min,,SCREENING,1,2025-08-25,-14
STUDY001,VS,STUDY001-SUBJ0004,6,HEIGHT,Height,153.4,cm,153.4,153.4,cm,Y,BASELINE,2,2025-09-08,1
STUDY001,VS,STUDY001-SUBJ0004,7,WEIGHT,Weight,111.4,kg,111.4,111.4,kg,Y,BASELINE,2,2025-09-08,1
STUDY001,VS,STUDY001-SUBJ0004,8,TEMP,Temperature,37.0,C,37.0,37.0,C,Y,BASELINE,2,2025-09-08,1
STUDY001,VS,STUDY001-SUBJ0004,9,BP,Blood Pressure,103/90,mmHg,103/90,,mmHg,Y,BASELINE,2,2025-09-08,1
STUDY001,VS,STUDY001-SUBJ0004,10,HR,Heart Rate,88,beats/min,88,88.0,beats/min,Y,BASELINE,2,2025-09-08,1
STUDY001,VS,STUDY001-SUBJ0004,11,HEIGHT,Height,153.1,cm,153.1,153.1,cm,,WEEK 1,3,2025-09-14,7
STUDY001,VS,STUDY001-SUBJ0004,12,WEIGHT,Weight,112.2,kg,112.2,112.2,kg,,WEEK 1,3,2025-09-14,7
STUDY001,VS,STUDY001-SUBJ0004,13,TEMP,Temperature,37.0,C,37.0,37.0,C,,WEEK 1,3,2025-09-14,7
STUDY001,VS,STUDY001-SUBJ0004,14,BP,Blood Pressure,103/91,mmHg,103/91,,mmHg,,WEEK 1,3,2025-09-14,7
STUDY001,VS,STUDY001-SUBJ0004,15,HR,Heart Rate,89,beats/min,89,89.0,beats/min,,WEEK 1,3,2025-09-14,7
STUDY001,VS,STUDY001-SUBJ0004,16,HEIGHT,Height,153.2,cm,153.2,153.2,cm,,WEEK 2,4,2025-09-21,14
STUDY001,VS,STUDY001-SUBJ0004,17,WEIGHT,Weight,110.9,kg,110.9,110.9,kg,,WEEK 2,4,2025-09-21,14
STUDY001,VS,STUDY001-SUBJ0004,18,TEMP,Temperature,36.6,C,36.6,36.6,C,,WEEK 2,4,2025-09-21,14
STUDY001,VS,STUDY001-SUBJ0004,19,BP,Blood Pressure,107/88,mmHg,107/88,,mmHg,,WEEK 2,4,2025-09-21,14
STUDY001,VS,STUDY001-SUBJ0004,20,HR,Heart Rate,87,beats/min,87,87.0,beats/min,,WEEK 2,4,2025-09-21,14
STUDY001,VS,STUDY001-SUBJ0004,21,HEIGHT,Height,153.3,cm,153.3,153.3,cm,,WEEK 4,5,2025-10-05,28
STUDY001,VS,STUDY001-SUBJ0004,22,WEIGHT,Weight,111.5,kg,111.5,111.5,kg,,WEEK 4,5,2025-10-05,28
STUDY001,VS,STUDY001-SUBJ0004,23,TEMP,Temperature,37.0,C,37.0,37.0,C,,WEEK 4,5,2025-10-05,28
STUDY001,VS,STUDY001-SUBJ0004,24,BP,Blood Pressure,99/94,mmHg,99/94,,mmHg,,WEEK 4,5,2025-10-05,28
STUDY001,VS,STUDY001-SUBJ0004,25,HR,Heart Rate,91,beats/min,91,91.0,beats/min,,WEEK 4,5,2025-10-05,28
STUDY001,VS,STUDY001-SUBJ0004,26,HEIGHT,Height,153.2,cm,153.2,153.2,cm,,WEEK 8,6,2025-11-02,56
STUDY001,VS,STUDY001-SUBJ0004,27,WEIGHT,Weight,111.2,kg,111.2,111.2,kg,,WEEK 8,6,2025-11-02,56
STUDY001,VS,STUDY001-SUBJ0004,28,TEMP,Temperature,36.8,C,36.8,36.8,C,,WEEK 8,6,2025-11-02,56
STUDY001,VS,STUDY001-SUBJ0004,29,BP,Blood Pressure,106/96,mmHg,106/96,,mmHg,,WEEK 8,6,2025-11-02,56
STUDY001,VS,STUDY001-SUBJ0004,30,HR,Heart Rate,91,beats/min,91,91.0,beats/min,,WEEK 8,6,2025-11-02,56
STUDY001,VS,STUDY001-SUBJ0004,31,HEIGHT,Height,153.3,cm,153.3,153.3,cm,,WEEK 12,7,2025-11-30,84
STUDY001,VS,STUDY001-SUBJ0004,32,WEIGHT,Weight,111.4,kg,111.4,111.4,kg,,WEEK 12,7,2025-11-30,84
STUDY001,VS,STUDY001-SUBJ0004,33,TEMP,Temperature,36.8,C,36.8,36.8,C,,WEEK 12,7,2025-11-30,84
STUDY001,VS,STUDY001-SUBJ0004,34,BP,Blood Pressure,99/91,mmHg,99/91,,mmHg,,WEEK 12,7,2025-11-30,84
STUDY001,VS,STUDY001-SUBJ0004,35,HR,Heart Rate,85,beats/min,85,85.0,beats/min,,WEEK 12,7,2025-11-30,84
STUDY001,VS,STUDY001-SUBJ0004,36,HEIGHT,Height,153.4,cm,153.4,153.4,cm,,WEEK 16,8,2025-12-28,112
STUDY001,VS,STUDY001-SUBJ0004,37,WEIGHT,Weight,111.0,kg,111.0,111.0,kg,,WEEK 16,8,2025-12-28,112
STUDY001,VS,STUDY001-SUBJ0004,38,TEMP,Temperature,36.7,C,36.7,36.7,C,,WEEK 16,8,2025-12-28,112
STUDY001,VS,STUDY001-SUBJ0004,39,BP,Blood Pressure,97/89,mmHg,97/89,,mmHg,,WEEK 16,8,2025-12-28,112
STUDY001,VS,STUDY001-SUBJ0004,40,HR,Heart Rate,88,beats/min,88,88.0,beats/min,,WEEK 16,8,2025-12-28,112
STUDY001,VS,STUDY001-SUBJ0004,41,HEIGHT,Height,153.4,cm,153.4,153.4,cm,,END OF TREATMENT,9,2026-01-25,140
STUDY001,VS,STUDY001-SUBJ0004,42,WEIGHT,Weight,111.1,kg,111.1,111.1,kg,,END OF TREATMENT,9,2026-01-25,140
STUDY001,VS,STUDY001-SUBJ0004,43,TEMP,Temperature,36.7,C,36.7,36.7,C,,END OF TREATMENT,9,2026-01-25,140
STUDY001,VS,STUDY001-SUBJ0004,44,BP,Blood Pressure,100/87,mmHg,100/87,,mmHg,,END OF TREATMENT,9,2026-01-25,140
STUDY001,VS,STUDY001-SUBJ0004,45,HR,Heart Rate,83,beats/min,83,83.0,beats/min,,END OF TREATMENT,9,2026-01-25,140
STUDY001,VS,STUDY001-SUBJ0005,1,HEIGHT,Height,199.4,cm,199.4,199.4,cm,,SCREENING,1,2025-04-05,-14
STUDY001,VS,STUDY001-SUBJ0005,2,WEIGHT,Weight,107.1,kg,107.1,107.1,kg,,SCREENING,1,2025-04-05,-14
STUDY001,VS,STUDY001-SUBJ0005,3,TEMP,Temperature,36.4,C,36.4,36.4,C,,SCREENING,1,2025-04-05,-14
STUDY001,VS,STUDY001-SUBJ0005,4,BP,Blood Pressure,108/83,mmHg,108/83,,mmHg,,SCREENING,1,2025-04-05,-14
STUDY001,VS,STUDY001-SUBJ0005,5,HR,Heart Rate,72,beats/min,72,72.0,beats/min,,SCREENING,1,2025-04-05,-14
STUDY001,VS,STUDY001-SUBJ0005,6,HEIGHT,Height,199.3,cm,199.3,199.3,cm,Y,BASELINE,2,2025-04-19,1
STUDY001,VS,STUDY001-SUBJ0005,7,WEIGHT,Weight,106.8,kg,106.8,106.8,kg,Y,BASELINE,2,2025-04-19,1
STUDY001,VS,STUDY001-SUBJ0005,8,TEMP,Temperature,36.5,C,36.5,36.5,C,Y,BASELINE,2,2025-04-19,1
STUDY001,VS,STUDY001-SUBJ0005,9,BP,Blood Pressure,102/79,mmHg,102/79,,mmHg,Y,BASELINE,2,2025-04-19,1
STUDY001,VS,STUDY001-SUBJ0005,10,HR,Heart Rate,67,beats/min,67,67.0,beats/min,Y,BASELINE,2,2025-04-19,1
STUDY001,VS,STUDY001-SUBJ0005,11,HEIGHT,Height,199.3,cm,199.3,199.3,cm,,WEEK 1,3,2025-04-25,7
STUDY001,VS,STUDY001-SUBJ0005,12,WEIGHT,Weight,107.2,kg,107.2,107.2,kg,,WEEK 1,3,2025-04-25,7
STUDY001,VS,STUDY001-SUBJ0005,13,TEMP,Temperature,36.3,C,36.3,36.3,C,,WEEK 1,3,2025-04-25,7
STUDY001,VS,STUDY001-SUBJ0005,14,BP,Blood Pressure,103/81,mmHg,103/81,,mmHg,,WEEK 1,3,2025-04-25,7
STUDY001,VS,STUDY001-SUBJ0005,15,HR,Heart Rate,72,beats/min,72,72.0,beats/min,,WEEK 1,3,2025-04-25,7
STUDY001,VS,STUDY001-SUBJ0005,16,HEIGHT,Height,199.3,cm,199.3,199.3,cm,,WEEK 2,4,2025-05-02,14
STUDY001,VS,STUDY001-SUBJ0005,17,WEIGHT,Weight,106.5,kg,106.5,106.5,kg,,WEEK 2,4,2025-05-02,14
STUDY001,VS,STUDY001-SUBJ0005,18,TEMP,Temperature,36.5,C,36.5,36.5,C,,WEEK 2,4,2025-05-02,14
STUDY001,VS,STUDY001-SUBJ0005,19,BP,Blood Pressure,111/80,mmHg,111/80,,mmHg,,WEEK 2,4,2025-05-02,14
STUDY001,VS,STUDY001-SUBJ0005,20,HR,Heart Rate,69,beats/min,69,69.0,beats/min,,WEEK 2,4,2025-05-02,14
STUDY001,VS,STUDY001-SUBJ0005,21,HEIGHT,Height,199.4,cm,199.4,199.4,cm,,WEEK 4,5,2025-05-16,28
STUDY001,VS,STUDY001-SUBJ0005,22,WEIGHT,Weight,106.6,kg,106.6,106.6,kg,,WEEK 4,5,2025-05-16,28
STUDY001,VS,STUDY001-SUBJ0005,23,TEMP,Temperature,36.5,C,36.5,36.5,C,,WEEK 4,5,2025-05-16,28
STUDY001,VS,STUDY001-SUBJ0005,24,BP,Blood Pressure,106/80,mmHg,106/80,,mmHg,,WEEK 4,5,2025-05-16,28
STUDY001,VS,STUDY001-SUBJ0005,25,HR,Heart Rate,75,beats/min,75,75.0,beats/min,,WEEK 4,5,2025-05-16,28
STUDY001,VS,STUDY001-SUBJ0005,26,HEIGHT,Height,199.5,cm,199.5,199.5,cm,,WEEK 8,6,2025-06-13,56
STUDY001,VS,STUDY001-SUBJ0005,27,WEIGHT,Weight,107.7,kg,107.7,107.7,kg,,WEEK 8,6,2025-06-13,56
STUDY001,VS,STUDY001-SUBJ0005,28,TEMP,Temperature,36.2,C,36.2,36.2,C,,WEEK 8,6,2025-06-13,56
STUDY001,VS,STUDY001-SUBJ0005,29,BP,Blood Pressure,109/78,mmHg,109/78,,mmHg,,WEEK 8,6,2025-06-13,56
STUDY001,VS,STUDY001-SUBJ0005,30,HR,Heart Rate,71,beats/min,71,71.0,beats/min,,WEEK 8,6,2025-06-13,56
STUDY001,VS,STUDY001-SUBJ0005,31,HEIGHT,Height,199.5,cm,199.5,199.5,cm,,WEEK 12,7,2025-07-11,84
STUDY001,VS,STUDY001-SUBJ0005,32,WEIGHT,Weight,108.0,kg,108.0,108.0,kg,,WEEK 12,7,2025-07-11,84
STUDY001,VS,STUDY001-SUBJ0005,33,TEMP,Temperature,36.4,C,36.4,36.4,C,,WEEK 12,7,2025-07-11,84
STUDY001,VS,STUDY001-SUBJ0005,34,BP,Blood Pressure,108/76,mmHg,108/76,,mmHg,,WEEK 12,7,2025-07-11,84
STUDY001,VS,STUDY001-SUBJ0005,35,HR,Heart Rate,67,beats/min,67,67.0,beats/min,,WEEK 12,7,2025-07-11,84
STUDY001,VS,STUDY001-SUBJ0005,36,HEIGHT,Height,199.5,cm,199.5,199.5,cm,,WEEK 16,8,2025-08-08,112
STUDY001,VS,STUDY001-SUBJ0005,37,WEIGHT,Weight,106.5,kg,106.5,106.5,kg,,WEEK 16,8,2025-08-08,112
STUDY001,VS,STUDY001-SUBJ0005,38,TEMP,Temperature,36.6,C,36.6,36.6,C,,WEEK 16,8,2025-08-08,112
STUDY001,VS,STUDY001-SUBJ0005,39,BP,Blood Pressure,102/81,mmHg,102/81,,mmHg,,WEEK 16,8,2025-08-08,112
STUDY001,VS,STUDY001-SUBJ0005,40,HR,Heart Rate,76,beats/min,76,76.0,beats/min,,WEEK 16,8,2025-08-08,112
STUDY001,VS,STUDY001-SUBJ0005,41,HEIGHT,Height,199.6,cm,199.6,199.6,cm,,END OF TREATMENT,9,2025-09-05,140
STUDY001,VS,STUDY001-SUBJ0005,42,WEIGHT,Weight,108.4,kg,108.4,108.4,kg,,END OF TREATMENT,9,2025-09-05,140
STUDY001,VS,STUDY001-SUBJ0005,43,TEMP,Temperature,36.4,C,36.4,36.4,C,,END OF TREATMENT,9,2025-09-05,140
STUDY001,VS,STUDY001-SUBJ0005,44,BP,Blood Pressure,104/82,mmHg,104/82,,mmHg,,END OF TREATMENT,9,2025-09-05,140
STUDY001,VS,STUDY001-SUBJ0005,45,HR,Heart Rate,68,beats/min,68,68.0,beats/min,,END OF TREATMENT,9,2025-09-05,140
STUDY001,VS,STUDY001-SUBJ0006,1,HEIGHT,Height,152.4,cm,152.4,152.4,cm,,SCREENING,1,2025-08-07,-14
STUDY001,VS,STUDY001-SUBJ0006,2,WEIGHT,Weight,70.9,kg,70.9,70.9,kg,,SCREENING,1,2025-08-07,-14
STUDY001,VS,STUDY001-SUBJ0006,3,TEMP,Temperature,36.0,C,36.0,36.0,C,,SCREENING,1,2025-08-07,-14
STUDY001,VS,STUDY001-SUBJ0006,4,BP,Blood Pressure,103/72,mmHg,103/72,,mmHg,,SCREENING,1,2025-08-07,-14
STUDY001,VS,STUDY001-SUBJ0006,5,HR,Heart Rate,68,beats/min,68,68.0,beats/min,,SCREENING,1,2025-08-07,-14
STUDY001,VS,STUDY001-SUBJ0006,6,HEIGHT,Height,152.4,cm,152.4,152.4,cm,Y,BASELINE,2,2025-08-21,1
STUDY001,VS,STUDY001-SUBJ0006,7,WEIGHT,Weight,71.6,kg,71.6,71.6,kg,Y,BASELINE,2,2025-08-21,1
STUDY001,VS,STUDY001-SUBJ0006,8,TEMP,Temperature,36.2,C,36.2,36.2,C,Y,BASELINE,2,2025-08-21,1
STUDY001,VS,STUDY001-SUBJ0006,9,BP,Blood Pressure,107/79,mmHg,107/79,,mmHg,Y,BASELINE,2,2025-08-21,1
STUDY001,VS,STUDY001-SUBJ0006,10,HR,Heart Rate,70,beats/min,70,70.0,beats/min,Y,BASELINE,2,2025-08-21,1
STUDY001,VS,STUDY001-SUBJ0006,11,HEIGHT,Height,152.6,cm,152.6,152.6,cm,,WEEK 1,3,2025-08-27,7
STUDY001,VS,STUDY001-SUBJ0006,12,WEIGHT,Weight,71.8,kg,71.8,71.8,kg,,WEEK 1,3,2025-08-27,7
STUDY001,VS,STUDY001-SUBJ0006,13,TEMP,Temperature,36.6,C,36.6,36.6,C,,WEEK 1,3,2025-08-27,7
STUDY001,VS,STUDY001-SUBJ0006,14,BP,Blood Pressure,108/79,mmHg,108/79,,mmHg,,WEEK 1,3,2025-08-27,7
STUDY001,VS,STUDY001-SUBJ0006,15,HR,Heart Rate,65,beats/min,65,65.0,beats/min,,WEEK 1,3,2025-08-27,7
STUDY001,VS,STUDY001-SUBJ0006,16,HEIGHT,Height,152.4,cm,152.4,152.4,cm,,WEEK 2,4,2025-09-03,14
STUDY001,VS,STUDY001-SUBJ0006,17,WEIGHT,Weight,71.8,kg,71.8,71.8,kg,,WEEK 2,4,2025-09-03,14
STUDY001,VS,STUDY001-SUBJ0006,18,TEMP,Temperature,36.2,C,36.2,36.2,C,,WEEK 2,4,2025-09-03,14
STUDY001,VS,STUDY001-SUBJ0006,19,BP,Blood Pressure,106/75,mmHg,106/75,,mmHg,,WEEK 2,4,2025-09-03,14
STUDY001,VS,STUDY001-SUBJ0006,20,HR,Heart Rate,62,beats/min,62,62.0,beats/min,,WEEK 2,4,2025-09-03,14
STUDY001,VS,STUDY001-SUBJ0006,21,HEIGHT,Height,152.6,cm,152.6,152.6,cm,,WEEK 4,5,2025-09-17,28
STUDY001,VS,STUDY001-SUBJ0006,22,WEIGHT,Weight,71.5,kg,71.5,71.5,kg,,WEEK 4,5,2025-09-17,28
STUDY001,VS,STUDY001-SUBJ0006,23,TEMP,Temperature,36.1,C,36.1,36.1,C,,WEEK 4,5,2025-09-17,28
STUDY001,VS,STUDY001-SUBJ0006,24,BP,Blood Pressure,98/71,mmHg,98/71,,mmHg,,WEEK 4,5,2025-09-17,28
STUDY001,VS,STUDY001-SUBJ0006,25,HR,Heart Rate,67,beats/min,67,67.0,beats/min,,WEEK 4,5,2025-09-17,28
STUDY001,VS,STUDY001-SUBJ0006,26,HEIGHT,Height,152.5,cm,152.5,152.5,cm,,WEEK 8,6,2025-10-15,56
STUDY001,VS,STUDY001-SUBJ0006,27,WEIGHT,Weight,70.0,kg,70.0,70.0,kg,,WEEK 8,6,2025-10-15,56
STUDY001,VS,STUDY001-SUBJ0006,28,TEMP,Temperature,36.0,C,36.0,36.0,C,,WEEK 8,6,2025-10-15,56
STUDY001,VS,STUDY001-SUBJ0006,29,BP,Blood Pressure,105/73,mmHg,105/73,,mmHg,,WEEK 8,6,2025-10-15,56
STUDY001,VS,STUDY001-SUBJ0006,30,HR,Heart Rate,65,beats/min,65,65.0,beats/min,,WEEK 8,6,2025-10-15,56
STUDY001,VS,STUDY001-SUBJ0006,31,HEIGHT,Height,152.5,cm,152.5,152.5,cm,,WEEK 12,7,2025-11-12,84
STUDY001,VS,STUDY001-SUBJ0006,32,WEIGHT,Weight,70.8,kg,70.8,70.8,kg,,WEEK 12,7,2025-11-12,84
STUDY001,VS,STUDY001-SUBJ0006,33,TEMP,Temperature,36.5,C,36.5,36.5,C,,WEEK 12,7,2025-11-12,84
STUDY001,VS,STUDY001-SUBJ0006,34,BP,Blood Pressure,105/79,mmHg,105/79,,mmHg,,WEEK 12,7,2025-11-12,84
STUDY001,VS,STUDY001-SUBJ0006,35,HR,Heart Rate,66,beats/min,66,66.0,beats/min,,WEEK 12,7,2025-11-12,84
STUDY001,VS,STUDY001-SUBJ0006,36,HEIGHT,Height,152.4,cm,152.4,152.4,cm,,WEEK 16,8,2025-12-10,112
STUDY001,VS,STUDY001-SUBJ0006,37,WEIGHT,Weight,70.0,kg,70.0,70.0,kg,,WEEK 16,8,2025-12-10,112
STUDY001,VS,STUDY001-SUBJ0006,38,TEMP,Temperature,36.2,C,36.2,36.2,C,,WEEK 16,8,2025-12-10,112
STUDY001,VS,STUDY001-SUBJ0006,39,BP,Blood Pressure,98/77,mmHg,98/77,,mmHg,,WEEK 16,8,2025-12-10,112
STUDY001,VS,STUDY001-SUBJ0006,40,HR,Heart Rate,67,beats/min,67,67.0,beats/min,,WEEK 16,8,2025-12-10,112
STUDY001,VS,STUDY001-SUBJ0006,41,HEIGHT,Height,152.3,cm,152.3,152.3,cm,,END OF TREATMENT,9,2026-01-07,140
STUDY001,VS,STUDY001-SUBJ0006,42,WEIGHT,Weight,71.4,kg,71.4,71.4,kg,,END OF TREATMENT,9,2026-01-07,140
STUDY001,VS,STUDY001-SUBJ0006,43,TEMP,Temperature,36.0,C,36.0,36.0,C,,END OF TREATMENT,9,2026-01-07,140
STUDY001,VS,STUDY001-SUBJ0006,44,BP,Blood Pressure,102/76,mmHg,102/76,,mmHg,,END OF TREATMENT,9,2026-01-07,140
STUDY001,VS,STUDY001-SUBJ0006,45,HR,Heart Rate,67,beats/min,67,67.0,beats/min,,END OF TREATMENT,9,2026-01-07,140
STUDY001,VS,STUDY001-SUBJ0007,1,HEIGHT,Height,196.5,cm,196.5,196.5,cm,,SCREENING,1,2025-08-14,-14
STUDY001,VS,STUDY001-SUBJ0007,2,WEIGHT,Weight,89.0,kg,89.0,89.0,kg,,SCREENING,1,2025-08-14,-14
STUDY001,VS,STUDY001-SUBJ0007,3,TEMP,Temperature,36.4,C,36.4,36.4,C,,SCREENING,1,2025-08-14,-14
STUDY001,VS,STUDY001-SUBJ0007,4,BP,Blood Pressure,125/74,mmHg,125/74,,mmHg,,SCREENING,1,2025-08-14,-14
STUDY001,VS,STUDY001-SUBJ0007,5,HR,Heart Rate,88,beats/min,88,88.0,beats/min,,SCREENING,1,2025-08-14,-14
STUDY001,VS,STUDY001-SUBJ0007,6,HEIGHT,Height,196.5,cm,196.5,196.5,cm,Y,BASELINE,2,2025-08-28,1
STUDY001,VS,STUDY001-SUBJ0007,7,WEIGHT,Weight,89.2,kg,89.2,89.2,kg,Y,BASELINE,2,2025-08-28,1
STUDY001,VS,STUDY001-SUBJ0007,8,TEMP,Temperature,35.9,C,35.9,35.9,C,Y,BASELINE,2,2025-08-28,1
STUDY001,VS,STUDY001-SUBJ0007,9,BP,Blood Pressure,117/67,mmHg,117/67,,mmHg,Y,BASELINE,2,2025-08-28,1
STUDY001,VS,STUDY001-SUBJ0007,10,HR,Heart Rate,84,beats/min,84,84.0,beats/min,Y,BASELINE,2,2025-08-28,1
STUDY001,VS,STUDY001-SUBJ0007,11,HEIGHT,Height,196.4,cm,196.4,196.4,cm,,WEEK 1,3,2025-09-03,7
STUDY001,VS,STUDY001-SUBJ0007,12,WEIGHT,Weight,88.2,kg,88.2,88.2,kg,,WEEK 1,3,2025-09-03,7
STUDY001,VS,STUDY001-SUBJ0007,13,TEMP,Temperature,36.5,C,36.5,36.5,C,,WEEK 1,3,2025-09-03,7
STUDY001,VS,STUDY001-SUBJ0007,14,BP,Blood Pressure,117/72,mmHg,117/72,,mmHg,,WEEK 1,3,2025-09-03,7
STUDY001,VS,STUDY001-SUBJ0007,15,HR,Heart Rate,90,beats/min,90,90.0,beats/min,,WEEK 1,3,2025-09-03,7
STUDY001,VS,STUDY001-SUBJ0007,16,HEIGHT,Height,196.3,cm,196.3,196.3,cm,,WEEK 2,4,2025-09-10,14
STUDY001,VS,STUDY001-SUBJ0007,17,WEIGHT,Weight,89.4,kg,89.4,89.4,kg,,WEEK 2,4,2025-09-10,14
STUDY001,VS,STUDY001-SUBJ0007,18,TEMP,Temperature,36.1,C,36.1,36.1,C,,WEEK 2,4,2025-09-10,14
STUDY001,VS,STUDY001-SUBJ0007,19,BP,Blood Pressure,124/68,mmHg,124/68,,mmHg,,WEEK 2,4,2025-09-10,14
STUDY001,VS,STUDY001-SUBJ0007,20,HR,Heart Rate,90,beats/min,90,90.0,beats/min,,WEEK 2,4,2025-09-10,14
STUDY001,VS,STUDY001-SUBJ0007,21,HEIGHT,Height,196.3,cm,196.3,196.3,cm,,WEEK 4,5,2025-09-24,28
STUDY001,VS,STUDY001-SUBJ0007,22,WEIGHT,Weight,88.6,kg,88.6,88.6,kg,,WEEK 4,5,2025-09-24,28
STUDY001,VS,STUDY001-SUBJ0007,23,TEMP,Temperature,36.2,C,36.2,36.2,C,,WEEK 4,5,2025-09-24,28
STUDY001,VS,STUDY001-SUBJ0007,24,BP,Blood Pressure,116/73,mmHg,116/73,,mmHg,,WEEK 4,5,2025-09-24,28
STUDY001,VS,STUDY001-SUBJ0007,25,HR,Heart Rate,93,beats/min,93,93.0,beats/min,,WEEK 4,5,2025-09-24,28
STUDY001,VS,STUDY001-SUBJ0007,26,HEIGHT,Height,196.5,cm,196.5,196.5,cm,,WEEK 8,6,2025-10-22,56
STUDY001,VS,STUDY001-SUBJ0007,27,WEIGHT,Weight,88.8,kg,88.8,88.8,kg,,WEEK 8,6,2025-10-22,56
STUDY001,VS,STUDY001-SUBJ0007,28,TEMP,Temperature,36.2,C,36.2,36.2,C,,WEEK 8,6,2025-10-22,56
STUDY001,VS,STUDY001-SUBJ0007,29,BP,Blood Pressure,124/68,mmHg,124/68,,mmHg,,WEEK 8,6,2025-10-22,56
STUDY001,VS,STUDY001-SUBJ0007,30,HR,Heart Rate,86,beats/min,86,86.0,beats/min,,WEEK 8,6,2025-10-22,56
STUDY001,VS,STUDY001-SUBJ0007,31,HEIGHT,Height,196.7,cm,196.7,196.7,cm,,WEEK 12,7,2025-11-19,84
STUDY001,VS,STUDY001-SUBJ0007,32,WEIGHT,Weight,88.5,kg,88.5,88.5,kg,,WEEK 12,7,2025-11-19,84
STUDY001,VS,STUDY001-SUBJ0007,33,TEMP,Temperature,36.1,C,36.1,36.1,C,,WEEK 12,7,2025-11-19,84
STUDY001,VS,STUDY001-SUBJ0007,34,BP,Blood Pressure,120/65,mmHg,120/65,,mmHg,,WEEK 12,7,2025-11-19,84
STUDY001,VS,STUDY001-SUBJ0007,35,HR,Heart Rate,91,beats/min,91,91.0,beats/min,,WEEK 12,7,2025-11-19,84
STUDY001,VS,STUDY001-SUBJ0007,36,HEIGHT,Height,196.5,cm,196.5,196.5,cm,,WEEK 16,8,2025-12-17,112
STUDY001,VS,STUDY001-SUBJ0007,37,WEIGHT,Weight,89.0,kg,89.0,89.0,kg,,WEEK 16,8,2025-12-17,112
STUDY001,VS,STUDY001-SUBJ0007,38,TEMP,Temperature,35.9,C,35.9,35.9,C,,WEEK 16,8,2025-12-17,112
STUDY001,VS,STUDY001-SUBJ0007,39,BP,Blood Pressure,117/66,mmHg,117/66,,mmHg,,WEEK 16,8,2025-12-17,112
STUDY001,VS,STUDY001-SUBJ0007,40,HR,Heart Rate,90,beats/min,90,90.0,beats/min,,WEEK 16,8,2025-12-17,112
STUDY001,VS,STUDY001-SUBJ0007,41,HEIGHT,Height,196.3,cm,196.3,196.3,cm,,END OF TREATMENT,9,2026-01-14,140
STUDY001,VS,STUDY001-SUBJ0007,42,WEIGHT,Weight,87.9,kg,87.9,87.9,kg,,END OF TREATMENT,9,2026-01-14,140
STUDY001,VS,STUDY001-SUBJ0007,43,TEMP,Temperature,36.0,C,36.0,36.0,C,,END OF TREATMENT,9,2026-01-14,140
STUDY001,VS,STUDY001-SUBJ0007,44,BP,Blood Pressure,126/70,mmHg,126/70,,mmHg,,END OF TREATMENT,9,2026-01-14,140
STUDY001,VS,STUDY001-SUBJ0007,45,HR,Heart Rate,88,beats/min,88,88.0,beats/min,,END OF TREATMENT,9,2026-01-14,140
STUDY001,VS,STUDY001-SUBJ0008,1,HEIGHT,Height,183.1,cm,183.1,183.1,cm,,SCREENING,1,2025-04-29,-14
STUDY001,VS,STUDY001-SUBJ0008,2,WEIGHT,Weight,62.9,kg,62.9,62.9,kg,,SCREENING,1,2025-04-29,-14
STUDY001,VS,STUDY001-SUBJ0008,3,TEMP,Temperature,36.8,C,36.8,36.8,C,,SCREENING,1,2025-04-29,-14
STUDY001,VS,STUDY001-SUBJ0008,4,BP,Blood Pressure,142/90,mmHg,142/90,,mmHg,,SCREENING,1,2025-04-29,-14
STUDY001,VS,STUDY001-SUBJ0008,5,HR,Heart Rate,81,beats/min,81,81.0,beats/min,,SCREENING,1,2025-04-29,-14
STUDY001,VS,STUDY001-SUBJ0008,6,HEIGHT,Height,183.2,cm,183.2,183.2,cm,Y,BASELINE,2,2025-05-13,1
STUDY001,VS,STUDY001-SUBJ0008,7,WEIGHT,Weight,62.9,kg,62.9,62.9,kg,Y,BASELINE,2,2025-05-13,1
STUDY001,VS,STUDY001-SUBJ0008,8,TEMP,Temperature,36.9,C,36.9,36.9,C,Y,BASELINE,2,2025-05-13,1
STUDY001,VS,STUDY001-SUBJ0008,9,BP,Blood Pressure,139/98,mmHg,139/98,,mmHg,Y,BASELINE,2,2025-05-13,1
STUDY001,VS,STUDY001-SUBJ0008,10,HR,Heart Rate,84,beats/min,84,84.0,beats/min,Y,BASELINE,2,2025-05-13,1
STUDY001,VS,STUDY001-SUBJ0008,11,HEIGHT,Height,183.1,cm,183.1,183.1,cm,,WEEK 1,3,2025-05-19,7
STUDY001,VS,STUDY001-SUBJ0008,12,WEIGHT,Weight,61.7,kg,61.7,61.7,kg,,WEEK 1,3,2025-05-19,7
STUDY001,VS,STUDY001-SUBJ0008,13,TEMP,Temperature,36.6,C,36.6,36.6,C,,WEEK 1,3,2025-05-19,7
STUDY001,VS,STUDY001-SUBJ0008,14,BP,Blood Pressure,138/92,mmHg,138/92,,mmHg,,WEEK 1,3,2025-05-19,7
STUDY001,VS,STUDY001-SUBJ0008,15,HR,Heart Rate,81,beats/min,81,81.0,beats/min,,WEEK 1,3,2025-05-19,7
STUDY001,VS,STUDY001-SUBJ0008,16,HEIGHT,Height,183.1,cm,183.1,183.1,cm,,WEEK 2,4,2025-05-26,14
STUDY001,VS,STUDY001-SUBJ0008,17,WEIGHT,Weight,61.8,kg,61.8,61.8,kg,,WEEK 2,4,2025-05-26,14
STUDY001,VS,STUDY001-SUBJ0008,18,TEMP,Temperature,36.3,C,36.3,36.3,C,,WEEK 2,4,2025-05-26,14
STUDY001,VS,STUDY001-SUBJ0008,19,BP,Blood Pressure,136/92,mmHg,136/92,,mmHg,,WEEK 2,4,2025-05-26,14
STUDY001,VS,STUDY001-SUBJ0008,20,HR,Heart Rate,89,beats/min,89,89.0,beats/min,,WEEK 2,4,2025-05-26,14
STUDY001,VS,STUDY001-SUBJ0008,21,HEIGHT,Height,182.9,cm,182.9,182.9,cm,,WEEK 4,5,2025-06-09,28
STUDY001,VS,STUDY001-SUBJ0008,22,WEIGHT,Weight,62.4,kg,62.4,62.4,kg,,WEEK 4,5,2025-06-09,28
STUDY001,VS,STUDY001-SUBJ0008,23,TEMP,Temperature,36.4,C,36.4,36.4,C,,WEEK 4,5,2025-06-09,28
STUDY001,VS,STUDY001-SUBJ0008,24,BP,Blood Pressure,142/93,mmHg,142/93,,mmHg,,WEEK 4,5,2025-06-09,28
STUDY001,VS,STUDY001-SUBJ0008,25,HR,Heart Rate,82,beats/min,82,82.0,beats/min,,WEEK 4,5,2025-06-09,28
STUDY001,VS,STUDY001-SUBJ0008,26,HEIGHT,Height,183.1,cm,183.1,183.1,cm,,WEEK 8,6,2025-07-07,56
STUDY001,VS,STUDY001-SUBJ0008,27,WEIGHT,Weight,62.9,kg,62.9,62.9,kg,,WEEK 8,6,2025-07-07,56
STUDY001,VS,STUDY001-SUBJ0008,28,TEMP,Temperature,36.4,C,36.4,36.4,C,,WEEK 8,6,2025-07-07,56
STUDY001,VS,STUDY001-SUBJ0008,29,BP,Blood Pressure,136/93,mmHg,136/93,,mmHg,,WEEK 8,6,2025-07-07,56
STUDY001,VS,STUDY001-SUBJ0008,30,HR,Heart Rate,82,beats/min,82,82.0,beats/min,,WEEK 8,6,2025-07-07,56
STUDY001,VS,STUDY001-SUBJ0008,31,HEIGHT,Height,183.1,cm,183.1,183.1,cm,,WEEK 12,7,2025-08-04,84
STUDY001,VS,STUDY001-SUBJ0008,32,WEIGHT,Weight,62.2,kg,62.2,62.2,kg,,WEEK 12,7,2025-08-04,84
STUDY001,VS,STUDY001-SUBJ0008,33,TEMP,Temperature,36.7,C,36.7,36.7,C,,WEEK 12,7,2025-08-04,84
STUDY001,VS,STUDY001-SUBJ0008,34,BP,Blood Pressure,138/93,mmHg,138/93,,mmHg,,WEEK 12,7,2025-08-04,84
STUDY001,VS,STUDY001-SUBJ0008,35,HR,Heart Rate,82,beats/min,82,82.0,beats/min,,WEEK 12,7,2025-08-04,84
STUDY001,VS,STUDY001-SUBJ0008,36,HEIGHT,Height,183.3,cm,183.3,183.3,cm,,WEEK 16,8,2025-09-01,112
STUDY001,VS,STUDY001-SUBJ0008,37,WEIGHT,Weight,61.5,kg,61.5,61.5,kg,,WEEK 16,8,2025-09-01,112
STUDY001,VS,STUDY001-SUBJ0008,38,TEMP,Temperature,36.5,C,36.5,36.5,C,,WEEK 16,8,2025-09-01,112
STUDY001,VS,STUDY001-SUBJ0008,39,BP,Blood Pressure,143/97,mmHg,143/97,,mmHg,,WEEK 16,8,2025-09-01,112
STUDY001,VS,STUDY001-SUBJ0008,40,HR,Heart Rate,81,beats/min,81,81.0,beats/min,,WEEK 16,8,2025-09-01,112
STUDY001,VS,STUDY001-SUBJ0008,41,HEIGHT,Height,182.9,cm,182.9,182.9,cm,,END OF TREATMENT,9,2025-09-29,140
STUDY001,VS,STUDY001-SUBJ0008,42,WEIGHT,Weight,62.7,kg,62.7,62.7,kg,,END OF TREATMENT,9,2025-09-29,140
STUDY001,VS,STUDY001-SUBJ0008,43,TEMP,Temperature,36.5,C,36.5,36.5,C,,END OF TREATMENT,9,2025-09-29,140
STUDY001,VS,STUDY001-SUBJ0008,44,BP,Blood Pressure,142/94,mmHg,142/94,,mmHg,,END OF TREATMENT,9,2025-09-29,140
STUDY001,VS,STUDY001-SUBJ0008,45,HR,Heart Rate,82,beats/min,82,82.0,beats/min,,END OF TREATMENT,9,2025-09-29,140
STUDY001,VS,STUDY001-SUBJ0009,1,HEIGHT,Height,192.4,cm,192.4,192.4,cm,,SCREENING,1,2025-02-15,-14
STUDY001,VS,STUDY001-SUBJ0009,2,WEIGHT,Weight,76.5,kg,76.5,76.5,kg,,SCREENING,1,2025-02-15,-14
STUDY001,VS,STUDY001-SUBJ0009,3,TEMP,Temperature,36.2,C,36.2,36.2,C,,SCREENING,1,2025-02-15,-14
STUDY001,VS,STUDY001-SUBJ0009,4,BP,Blood Pressure,126/81,mmHg,126/81,,mmHg,,SCREENING,1,2025-02-15,-14
STUDY001,VS,STUDY001-SUBJ0009,5,HR,Heart Rate,80,beats/min,80,80.0,beats/min,,SCREENING,1,2025-02-15,-14
STUDY001,VS,STUDY001-SUBJ0009,6,HEIGHT,Height,192.3,cm,192.3,192.3,cm,Y,BASELINE,2,2025-03-01,1
STUDY001,VS,STUDY001-SUBJ0009,7,WEIGHT,Weight,75.2,kg,75.2,75.2,kg,Y,BASELINE,2,2025-03-01,1
STUDY001,VS,STUDY001-SUBJ0009,8,TEMP,Temperature,35.9,C,35.9,35.9,C,Y,BASELINE,2,2025-03-01,1
STUDY001,VS,STUDY001-SUBJ0009,9,BP,Blood Pressure,131/86,mmHg,131/86,,mmHg,Y,BASELINE,2,2025-03-01,1
STUDY001,VS,STUDY001-SUBJ0009,10,HR,Heart Rate,77,beats/min,77,77.0,beats/min,Y,BASELINE,2,2025-03-01,1
STUDY001,VS,STUDY001-SUBJ0009,11,HEIGHT,Height,192.5,cm,192.5,192.5,cm,,WEEK 1,3,2025-03-07,7
STUDY001,VS,STUDY001-SUBJ0009,12,WEIGHT,Weight,75.5,kg,75.5,75.5,kg,,WEEK 1,3,2025-03-07,7
STUDY001,VS,STUDY001-SUBJ0009,13,TEMP,Temperature,36.1,C,36.1,36.1,C,,WEEK 1,3,2025-03-07,7
STUDY001,VS,STUDY001-SUBJ0009,14,BP,Blood Pressure,127/82,mmHg,127/82,,mmHg,,WEEK 1,3,2025-03-07,7
STUDY001,VS,STUDY001-SUBJ0009,15,HR,Heart Rate,74,beats/min,74,74.0,beats/min,,WEEK 1,3,2025-03-07,7
STUDY001,VS,STUDY001-SUBJ0009,16,HEIGHT,Height,192.5,cm,192.5,192.5,cm,,WEEK 2,4,2025-03-14,14
STUDY001,VS,STUDY001-SUBJ0009,17,WEIGHT,Weight,76.6,kg,76.6,76.6,kg,,WEEK 2,4,2025-03-14,14
STUDY001,VS,STUDY001-SUBJ0009,18,TEMP,Temperature,36.1,C,36.1,36.1,C,,WEEK 2,4,2025-03-14,14
STUDY001,VS,STUDY001-SUBJ0009,19,BP,Blood Pressure,129/82,mmHg,129/82,,mmHg,,WEEK 2,4,2025-03-14,14
STUDY001,VS,STUDY001-SUBJ0009,20,HR,Heart Rate,79,beats/min,79,79.0,beats/min,,WEEK 2,4,2025-03-14,14
STUDY001,VS,STUDY001-SUBJ0009,21,HEIGHT,Height,192.4,cm,192.4,192.4,cm,,WEEK 4,5,2025-03-28,28
STUDY001,VS,STUDY001-SUBJ0009,22,WEIGHT,Weight,75.0,kg,75.0,75.0,kg,,WEEK 4,5,2025-03-28,28
STUDY001,VS,STUDY001-SUBJ0009,23,TEMP,Temperature,36.4,C,36.4,36.4,C,,WEEK 4,5,2025-03-28,28
STUDY001,VS,STUDY001-SUBJ0009,24,BP,Blood Pressure,132/86,mmHg,132/86,,mmHg,,WEEK 4,5,2025-03-28,28
STUDY001,VS,STUDY001-SUBJ0009,25,HR,Heart Rate,81,beats/min,81,81.0,beats/min,,WEEK 4,5,2025-03-28,28
STUDY001,VS,STUDY001-SUBJ0009,26,HEIGHT,Height,192.5,cm,192.5,192.5,cm,,WEEK 8,6,2025-04-25,56
STUDY001,VS,STUDY001-SUBJ0009,27,WEIGHT,Weight,75.9,kg,75.9,75.9,kg,,WEEK 8,6,2025-04-25,56
STUDY001,VS,STUDY001-SUBJ0009,28,TEMP,Temperature,36.4,C,36.4,36.4,C,,WEEK 8,6,2025-04-25,56
STUDY001,VS,STUDY001-SUBJ0009,29,BP,Blood Pressure,123/81,mmHg,123/81,,mmHg,,WEEK 8,6,2025-04-25,56
STUDY001,VS,STUDY001-SUBJ0009,30,HR,Heart Rate,79,beats/min,79,79.0,beats/min,,WEEK 8,6,2025-04-25,56
STUDY001,VS,STUDY001-SUBJ0009,31,HEIGHT,Height,192.6,cm,192.6,192.6,cm,,WEEK 12,7,2025-05-23,84
STUDY001,VS,STUDY001-SUBJ0009,32,WEIGHT,Weight,76.6,kg,76.6,76.6,kg,,WEEK 12,7,2025-05-23,84
STUDY001,VS,STUDY001-SUBJ0009,33,TEMP,Temperature,36.2,C,36.2,36.2,C,,WEEK 12,7,2025-05-23,84
STUDY001,VS,STUDY001-SUBJ0009,34,BP,Blood Pressure,129/82,mmHg,129/82,,mmHg,,WEEK 12,7,2025-05-23,84
STUDY001,VS,STUDY001-SUBJ0009,35,HR,Heart Rate,74,beats/min,74,74.0,beats/min,,WEEK 12,7,2025-05-23,84
STUDY001,VS,STUDY001-SUBJ0009,36,HEIGHT,Height,192.4,cm,192.4,192.4,cm,,WEEK 16,8,2025-06-20,112
STUDY001,VS,STUDY001-SUBJ0009,37,WEIGHT,Weight,75.9,kg,75.9,75.9,kg,,WEEK 16,8,2025-06-20,112
STUDY001,VS,STUDY001-SUBJ0009,38,TEMP,Temperature,36.1,C,36.1,36.1,C,,WEEK 16,8,2025-06-20,112
STUDY001,VS,STUDY001-SUBJ0009,39,BP,Blood Pressure,130/89,mmHg,130/89,,mmHg,,WEEK 16,8,2025-06-20,112
STUDY001,VS,STUDY001-SUBJ0009,40,HR,Heart Rate,83,beats/min,83,83.0,beats/min,,WEEK 16,8,2025-06-20,112
STUDY001,VS,STUDY001-SUBJ0009,41,HEIGHT,Height,192.5,cm,192.5,192.5,cm,,END OF TREATMENT,9,2025-07-18,140
STUDY001,VS,STUDY001-SUBJ0009,42,WEIGHT,Weight,75.1,kg,75.1,75.1,kg,,END OF TREATMENT,9,2025-07-18,140
STUDY001,VS,STUDY001-SUBJ0009,43,TEMP,Temperature,36.0,C,36.0,36.0,C,,END OF TREATMENT,9,2025-07-18,140
STUDY001,VS,STUDY001-SUBJ0009,44,BP,Blood Pressure,123/88,mmHg,123/88,,mmHg,,END OF TREATMENT,9,2025-07-18,140
STUDY001,VS,STUDY001-SUBJ0009,45,HR,Heart Rate,81,beats/min,81,81.0,beats/min,,END OF TREATMENT,9,2025-07-18,140
STUDY001,VS,STUDY001-SUBJ0010,1,HEIGHT,Height,175.9,cm,175.9,175.9,cm,,SCREENING,1,2025-11-19,-14
STUDY001,VS,STUDY001-SUBJ0010,2,WEIGHT,Weight,69.6,kg,69.6,69.6,kg,,SCREENING,1,2025-11-19,-14
STUDY001,VS,STUDY001-SUBJ0010,3,TEMP,Temperature,36.9,C,36.9,36.9,C,,SCREENING,1,2025-11-19,-14
STUDY001,VS,STUDY001-SUBJ0010,4,BP,Blood Pressure,115/88,mmHg,115/88,,mmHg,,SCREENING,1,2025-11-19,-14
STUDY001,VS,STUDY001-SUBJ0010,5,HR,Heart Rate,76,beats/min,76,76.0,beats/min,,SCREENING,1,2025-11-19,-14
STUDY001,VS,STUDY001-SUBJ0010,6,HEIGHT,Height,176.0,cm,176.0,176.0,cm,Y,BASELINE,2,2025-12-03,1
STUDY001,VS,STUDY001-SUBJ0010,7,WEIGHT,Weight,68.9,kg,68.9,68.9,kg,Y,BASELINE,2,2025-12-03,1
STUDY001,VS,STUDY001-SUBJ0010,8,TEMP,Temperature,36.9,C,36.9,36.9,C,Y,BASELINE,2,2025-12-03,1
STUDY001,VS,STUDY001-SUBJ0010,9,BP,Blood Pressure,112/94,mmHg,112/94,,mmHg,Y,BASELINE,2,2025-12-03,1
STUDY001,VS,STUDY001-SUBJ0010,10,HR,Heart Rate,79,beats/min,79,79.0,beats/min,Y,BASELINE,2,2025-12-03,1
STUDY001,VS,STUDY001-SUBJ0010,11,HEIGHT,Height,175.8,cm,175.8,175.8,cm,,WEEK 1,3,2025-12-09,7
STUDY001,VS,STUDY001-SUBJ0010,12,WEIGHT,Weight,68.2,kg,68.2,68.2,kg,,WEEK 1,3,2025-12-09,7
STUDY001,VS,STUDY001-SUBJ0010,13,TEMP,Temperature,37.2,C,37.2,37.2,C,,WEEK 1,3,2025-12-09,7
STUDY001,VS,STUDY001-SUBJ0010,14,BP,Blood Pressure,110/96,mmHg,110/96,,mmHg,,WEEK 1,3,2025-12-09,7
STUDY001,VS,STUDY001-SUBJ0010,15,HR,Heart Rate,83,beats/min,83,83.0,beats/min,,WEEK 1,3,2025-12-09,7
STUDY001,VS,STUDY001-SUBJ0010,16,HEIGHT,Height,175.8,cm,175.8,175.8,cm,,WEEK 2,4,2025-12-16,14
STUDY001,VS,STUDY001-SUBJ0010,17,WEIGHT,Weight,68.2,kg,68.2,68.2,kg,,WEEK 2,4,2025-12-16,14
STUDY001,VS,STUDY001-SUBJ0010,18,TEMP,Temperature,36.8,C,36.8,36.8,C,,WEEK 2,4,2025-12-16,14
STUDY001,VS,STUDY001-SUBJ0010,19,BP,Blood Pressure,118/92,mmHg,118/92,,mmHg,,WEEK 2,4,2025-12-16,14
STUDY001,VS,STUDY001-SUBJ0010,20,HR,Heart Rate,80,beats/min,80,80.0,beats/min,,WEEK 2,4,2025-12-16,14
STUDY001,VS,STUDY001-SUBJ0010,21,HEIGHT,Height,176.0,cm,176.0,176.0,cm,,WEEK 4,5,2025-12-30,28
STUDY001,VS,STUDY001-SUBJ0010,22,WEIGHT,Weight,68.5,kg,68.5,68.5,kg,,WEEK 4,5,2025-12-30,28
STUDY001,VS,STUDY001-SUBJ0010,23,TEMP,Temperature,37.2,C,37.2,37.2,C,,WEEK 4,5,2025-12-30,28
STUDY001,VS,STUDY001-SUBJ0010,24,BP,Blood Pressure,117/98,mmHg,117/98,,mmHg,,WEEK 4,5,2025-12-30,28
STUDY001,VS,STUDY001-SUBJ0010,25,HR,Heart Rate,81,beats/min,81,81.0,beats/min,,WEEK 4,5,2025-12-30,28
STUDY001,VS,STUDY001-SUBJ0010,26,HEIGHT,Height,176.0,cm,176.0,176.0,cm,,WEEK 8,6,2026-01-27,56
STUDY001,VS,STUDY001-SUBJ0010,27,WEIGHT,Weight,69.0,kg,69.0,69.0,kg,,WEEK 8,6,2026-01-27,56
STUDY001,VS,STUDY001-SUBJ0010,28,TEMP,Temperature,36.7,C,36.7,36.7,C,,WEEK 8,6,2026-01-27,56
STUDY001,VS,STUDY001-SUBJ0010,29,BP,Blood Pressure,115/91,mmHg,115/91,,mmHg,,WEEK 8,6,2026-01-27,56
STUDY001,VS,STUDY001-SUBJ0010,30,HR,Heart Rate,79,beats/min,79,79.0,beats/min,,WEEK 8,6,2026-01-27,56
STUDY001,VS,STUDY001-SUBJ0010,31,HEIGHT,Height,175.9,cm,175.9,175.9,cm,,WEEK 12,7,2026-02-24,84
STUDY001,VS,STUDY001-SUBJ0010,32,WEIGHT,Weight,68.2,kg,68.2,68.2,kg,,WEEK 12,7,2026-02-24,84
STUDY001,VS,STUDY001-SUBJ0010,33,TEMP,Temperature,37.2,C,37.2,37.2,C,,WEEK 12,7,2026-02-24,84
STUDY001,VS,STUDY001-SUBJ0010,34,BP,Blood Pressure,112/88,mmHg,112/88,,mmHg,,WEEK 12,7,2026-02-24,84
STUDY001,VS,STUDY001-SUBJ0010,35,HR,Heart Rate,79,beats/min,79,79.0,beats/min,,WEEK 12,7,2026-02-24,84
STUDY001,VS,STUDY001-SUBJ0010,36,HEIGHT,Height,175.8,cm,175.8,175.8,cm,,WEEK 16,8,2026-03-24,112
STUDY001,VS,STUDY001-SUBJ0010,37,WEIGHT,Weight,68.0,kg,68.0,68.0,kg,,WEEK 16,8,2026-03-24,112
STUDY001,VS,STUDY001-SUBJ0010,38,TEMP,Temperature,37.0,C,37.0,37.0,C,,WEEK 16,8,2026-03-24,112
STUDY001,VS,STUDY001-SUBJ0010,39,BP,Blood Pressure,119/91,mmHg,119/91,,mmHg,,WEEK 16,8,2026-03-24,112
STUDY001,VS,STUDY001-SUBJ0010,40,HR,Heart Rate,82,beats/min,82,82.0,beats/min,,WEEK 16,8,2026-03-24,112
STUDY001,VS,STUDY001-SUBJ0010,41,HEIGHT,Height,175.8,cm,175.8,175.8,cm,,END OF TREATMENT,9,2026-04-21,140
STUDY001,VS,STUDY001-SUBJ0010,42,WEIGHT,Weight,69.6,kg,69.6,69.6,kg,,END OF TREATMENT,9,2026-04-21,140
STUDY001,VS,STUDY001-SUBJ0010,43,TEMP,Temperature,37.2,C,37.2,37.2,C,,END OF TREATMENT,9,2026-04-21,140
STUDY001,VS,STUDY001-SUBJ0010,44,BP,Blood Pressure,114/98,mmHg,114/98,,mmHg,,END OF TREATMENT,9,2026-04-21,140
STUDY001,VS,STUDY001-SUBJ0010,45,HR,Heart Rate,84,beats/min,84,84.0,beats/min,,END OF TREATMENT,9,2026-04-21,140
STUDY001,VS,STUDY001-SUBJ0011,1,HEIGHT,Height,172.2,cm,172.2,172.2,cm,,SCREENING,1,2025-09-18,-14
STUDY001,VS,STUDY001-SUBJ0011,2,WEIGHT,Weight,81.4,kg,81.4,81.4,kg,,SCREENING,1,2025-09-18,-14
STUDY001,VS,STUDY001-SUBJ0011,3,TEMP,Temperature,37.1,C,37.1,37.1,C,,SCREENING,1,2025-09-18,-14
STUDY001,VS,STUDY001-SUBJ0011,4,BP,Blood Pressure,108/75,mmHg,108/75,,mmHg,,SCREENING,1,2025-09-18,-14
STUDY001,VS,STUDY001-SUBJ0011,5,HR,Heart Rate,81,beats/min,81,81.0,beats/min,,SCREENING,1,2025-09-18,-14
STUDY001,VS,STUDY001-SUBJ0011,6,HEIGHT,Height,172.1,cm,172.1,172.1,cm,Y,BASELINE,2,2025-10-02,1
STUDY001,VS,STUDY001-SUBJ0011,7,WEIGHT,Weight,80.2,kg,80.2,80.2,kg,Y,BASELINE,2,2025-10-02,1
STUDY001,VS,STUDY001-SUBJ0011,8,TEMP,Temperature,36.8,C,36.8,36.8,C,Y,BASELINE,2,2025-10-02,1
STUDY001,VS,STUDY001-SUBJ0011,9,BP,Blood Pressure,109/76,mmHg,109/76,,mmHg,Y,BASELINE,2,2025-10-02,1
STUDY001,VS,STUDY001-SUBJ0011,10,HR,Heart Rate,77,beats/min,77,77.0,beats/min,Y,BASELINE,2,2025-10-02,1
STUDY001,VS,STUDY001-SUBJ0011,11,HEIGHT,Height,172.1,cm,172.1,172.1,cm,,WEEK 1,3,2025-10-08,7
STUDY001,VS,STUDY001-SUBJ0011,12,WEIGHT,Weight,80.7,kg,80.7,80.7,kg,,WEEK 1,3,2025-10-08,7
STUDY001,VS,STUDY001-SUBJ0011,13,TEMP,Temperature,37.1,C,37.1,37.1,C,,WEEK 1,3,2025-10-08,7
STUDY001,VS,STUDY001-SUBJ0011,14,BP,Blood Pressure,107/74,mmHg,107/74,,mmHg,,WEEK 1,3,2025-10-08,7
STUDY001,VS,STUDY001-SUBJ0011,15,HR,Heart Rate,81,beats/min,81,81.0,beats/min,,WEEK 1,3,2025-10-08,7
STUDY001,VS,STUDY001-SUBJ0011,16,HEIGHT,Height,172.3,cm,172.3,172.3,cm,,WEEK 2,4,2025-10-15,14
STUDY001,VS,STUDY001-SUBJ0011,17,WEIGHT,Weight,81.7,kg,81.7,81.7,kg,,WEEK 2,4,2025-10-15,14
STUDY001,VS,STUDY001-SUBJ0011,18,TEMP,Temperature,37.1,C,37.1,37.1,C,,WEEK 2,4,2025-10-15,14
STUDY001,VS,STUDY001-SUBJ0011,19,BP,Blood Pressure,111/75,mmHg,111/75,,mmHg,,WEEK 2,4,2025-10-15,14
STUDY001,VS,STUDY001-SUBJ0011,20,HR,Heart Rate,77,beats/min,77,77.0,beats/min,,WEEK 2,4,2025-10-15,14
STUDY001,VS,STUDY001-SUBJ0011,21,HEIGHT,Height,172.0,cm,172.0,172.0,cm,,WEEK 4,5,2025-10-29,28
STUDY001,VS,STUDY001-SUBJ0011,22,WEIGHT,Weight,80.7,kg,80.7,80.7,kg,,WEEK 4,5,2025-10-29,28
STUDY001,VS,STUDY001-SUBJ0011,23,TEMP,Temperature,36.7,C,36.7,36.7,C,,WEEK 4,5,2025-10-29,28
STUDY001,VS,STUDY001-SUBJ0011,24,BP,Blood Pressure,111/69,mmHg,111/69,,mmHg,,WEEK 4,5,2025-10-29,28
STUDY001,VS,STUDY001-SUBJ0011,25,HR,Heart Rate,73,beats/min,73,73.0,beats/min,,WEEK 4,5,2025-10-29,28
STUDY001,VS,STUDY001-SUBJ0011,26,HEIGHT,Height,172.0,cm,172.0,172.0,cm,,WEEK 8,6,2025-11-26,56
STUDY001,VS,STUDY001-SUBJ0011,27,WEIGHT,Weight,80.3,kg,80.3,80.3,kg,,WEEK 8,6,2025-11-26,56
STUDY001,VS,STUDY001-SUBJ0011,28,TEMP,Temperature,37.1,C,37.1,37.1,C,,WEEK 8,6,2025-11-26,56
STUDY001,VS,STUDY001-SUBJ0011,29,BP,Blood Pressure,112/69,mmHg,112/69,,mmHg,,WEEK 8,6,2025-11-26,56
STUDY001,VS,STUDY001-SUBJ0011,30,HR,Heart Rate,75,beats/min,75,75.0,beats/min,,WEEK 8,6,2025-11-26,56
STUDY001,VS,STUDY001-SUBJ0011,31,HEIGHT,Height,172.0,cm,172.0,172.0,cm,,WEEK 12,7,2025-12-24,84
STUDY001,VS,STUDY001-SUBJ0011,32,WEIGHT,Weight,81.4,kg,81.4,81.4,kg,,WEEK 12,7,2025-12-24,84
STUDY001,VS,STUDY001-SUBJ0011,33,TEMP,Temperature,36.9,C,36.9,36.9,C,,WEEK 12,7,2025-12-24,84
STUDY001,VS,STUDY001-SUBJ0011,34,BP,Blood Pressure,109/76,mmHg,109/76,,mmHg,,WEEK 12,7,2025-12-24,84
STUDY001,VS,STUDY001-SUBJ0011,35,HR,Heart Rate,81,beats/min,81,81.0,beats/min,,WEEK 12,7,2025-12-24,84
STUDY001,VS,STUDY001-SUBJ0011,36,HEIGHT,Height,172.1,cm,172.1,172.1,cm,,WEEK 16,8,2026-01-21,112
STUDY001,VS,STUDY001-SUBJ0011,37,WEIGHT,Weight,80.1,kg,80.1,80.1,kg,,WEEK 16,8,2026-01-21,112
STUDY001,VS,STUDY001-SUBJ0011,38,TEMP,Temperature,37.2,C,37.2,37.2,C,,WEEK 16,8,2026-01-21,112
STUDY001,VS,STUDY001-SUBJ0011,39,BP,Blood Pressure,108/74,mmHg,108/74,,mmHg,,WEEK 16,8,2026-01-21,112
STUDY001,VS,STUDY001-SUBJ0011,40,HR,Heart Rate,81,beats/min,81,81.0,beats/min,,WEEK 16,8,2026-01-21,112
STUDY001,VS,STUDY001-SUBJ0011,41,HEIGHT,Height,172.2,cm,172.2,172.2,cm,,END OF TREATMENT,9,2026-02-18,140
STUDY001,VS,STUDY001-SUBJ0011,42,WEIGHT,Weight,80.6,kg,80.6,80.6,kg,,END OF TREATMENT,9,2026-02-18,140
STUDY001,VS,STUDY001-SUBJ0011,43,TEMP,Temperature,37.0,C,37.0,37.0,C,,END OF TREATMENT,9,2026-02-18,140
STUDY001,VS,STUDY001-SUBJ0011,44,BP,Blood Pressure,111/67,mmHg,111/67,,mmHg,,END OF TREATMENT,9,2026-02-18,140
STUDY001,VS,STUDY001-SUBJ0011,45,HR,Heart Rate,75,beats/min,75,75.0,beats/min,,END OF TREATMENT,9,2026-02-18,140
STUDY001,VS,STUDY001-SUBJ0012,1,HEIGHT,Height,171.3,cm,171.3,171.3,cm,,SCREENING,1,2025-11-02,-14
STUDY001,VS,STUDY001-SUBJ0012,2,WEIGHT,Weight,50.5,kg,50.5,50.5,kg,,SCREENING,1,2025-11-02,-14
STUDY001,VS,STUDY001-SUBJ0012,3,TEMP,Temperature,36.2,C,36.2,36.2,C,,SCREENING,1,2025-11-02,-14
STUDY001,VS,STUDY001-SUBJ0012,4,BP,Blood Pressure,111/68,mmHg,111/68,,mmHg,,SCREENING,1,2025-11-02,-14
STUDY001,VS,STUDY001-SUBJ0012,5,HR,Heart Rate,84,beats/min,84,84.0,beats/min,,SCREENING,1,2025-11-02,-14
STUDY001,VS,STUDY001-SUBJ0012,6,HEIGHT,Height,171.2,cm,171.2,171.2,cm,Y,BASELINE,2,2025-11-16,1
STUDY001,VS,STUDY001-SUBJ0012,7,WEIGHT,Weight,50.1,kg,50.1,50.1,kg,Y,BASELINE,2,2025-11-16,1
STUDY001,VS,STUDY001-SUBJ0012,8,TEMP,Temperature,36.3,C,36.3,36.3,C,Y,BASELINE,2,2025-11-16,1
STUDY001,VS,STUDY001-SUBJ0012,9,BP,Blood Pressure,106/72,mmHg,106/72,,mmHg,Y,BASELINE,2,2025-11-16,1
STUDY001,VS,STUDY001-SUBJ0012,10,HR,Heart Rate,84,beats/min,84,84.0,beats/min,Y,BASELINE,2,2025-11-16,1
STUDY001,VS,STUDY001-SUBJ0012,11,HEIGHT,Height,171.2,cm,171.2,171.2,cm,,WEEK 1,3,2025-11-22,7
STUDY001,VS,STUDY001-SUBJ0012,12,WEIGHT,Weight,50.0,kg,50.0,50.0,kg,,WEEK 1,3,2025-11-22,7
STUDY001,VS,STUDY001-SUBJ0012,13,TEMP,Temperature,36.2,C,36.2,36.2,C,,WEEK 1,3,2025-11-22,7
STUDY001,VS,STUDY001-SUBJ0012,14,BP,Blood Pressure,114/71,mmHg,114/71,,mmHg,,WEEK 1,3,2025-11-22,7
STUDY001,VS,STUDY001-SUBJ0012,15,HR,Heart Rate,89,beats/min,89,89.0,beats/min,,WEEK 1,3,2025-11-22,7
STUDY001,VS,STUDY001-SUBJ0012,16,HEIGHT,Height,171.1,cm,171.1,171.1,cm,,WEEK 2,4,2025-11-29,14
STUDY001,VS,STUDY001-SUBJ0012,17,WEIGHT,Weight,49.8,kg,49.8,49.8,kg,,WEEK 2,4,2025-11-29,14
STUDY001,VS,STUDY001-SUBJ0012,18,TEMP,Temperature,36.5,C,36.5,36.5,C,,WEEK 2,4,2025-11-29,14
STUDY001,VS,STUDY001-SUBJ0012,19,BP,Blood Pressure,107/70,mmHg,107/70,,mmHg,,WEEK 2,4,2025-11-29,14
STUDY001,VS,STUDY001-SUBJ0012,20,HR,Heart Rate,90,beats/min,90,90.0,beats/min,,WEEK 2,4,2025-11-29,14
STUDY001,VS,STUDY001-SUBJ0012,21,HEIGHT,Height,171.4,cm,171.4,171.4,cm,,WEEK 4,5,2025-12-13,28
STUDY001,VS,STUDY001-SUBJ0012,22,WEIGHT,Weight,50.3,kg,50.3,50.3,kg,,WEEK 4,5,2025-12-13,28
STUDY001,VS,STUDY001-SUBJ0012,23,TEMP,Temperature,36.2,C,36.2,36.2,C,,WEEK 4,5,2025-12-13,28
STUDY001,VS,STUDY001-SUBJ0012,24,BP,Blood Pressure,113/74,mmHg,113/74,,mmHg,,WEEK 4,5,2025-12-13,28
STUDY001,VS,STUDY001-SUBJ0012,25,HR,Heart Rate,85,beats/min,85,85.0,beats/min,,WEEK 4,5,2025-12-13,28
STUDY001,VS,STUDY001-SUBJ0012,26,HEIGHT,Height,171.1,cm,171.1,171.1,cm,,WEEK 8,6,2026-01-10,56
STUDY001,VS,STUDY001-SUBJ0012,27,WEIGHT,Weight,50.6,kg,50.6,50.6,kg,,WEEK 8,6,2026-01-10,56
STUDY001,VS,STUDY001-SUBJ0012,28,TEMP,Temperature,36.5,C,36.5,36.5,C,,WEEK 8,6,2026-01-10,56
STUDY001,VS,STUDY001-SUBJ0012,29,BP,Blood Pressure,109/69,mmHg,109/69,,mmHg,,WEEK 8,6,2026-01-10,56
STUDY001,VS,STUDY001-SUBJ0012,30,HR,Heart Rate,92,beats/min,92,92.0,beats/min,,WEEK 8,6,2026-01-10,56
STUDY001,VS,STUDY001-SUBJ0012,31,HEIGHT,Height,171.4,cm,171.4,171.4,cm,,WEEK 12,7,2026-02-07,84
STUDY001,VS,STUDY001-SUBJ0012,32,WEIGHT,Weight,51.2,kg,51.2,51.2,kg,,WEEK 12,7,2026-02-07,84
STUDY001,VS,STUDY001-SUBJ0012,33,TEMP,Temperature,36.5,C,36.5,36.5,C,,WEEK 12,7,2026-02-07,84
STUDY001,VS,STUDY001-SUBJ0012,34,BP,Blood Pressure,114/69,mmHg,114/69,,mmHg,,WEEK 12,7,2026-02-07,84
STUDY001,VS,STUDY001-SUBJ0012,35,HR,Heart Rate,88,beats/min,88,88.0,beats/min,,WEEK 12,7,2026-02-07,84
STUDY001,VS,STUDY001-SUBJ0012,36,HEIGHT,Height,171.4,cm,171.4,171.4,cm,,WEEK 16,8,2026-03-07,112
STUDY001,VS,STUDY001-SUBJ0012,37,WEIGHT,Weight,49.8,kg,49.8,49.8,kg,,WEEK 16,8,2026-03-07,112
STUDY001,VS,STUDY001-SUBJ0012,38,TEMP,Temperature,36.5,C,36.5,36.5,C,,WEEK 16,8,2026-03-07,112
STUDY001,VS,STUDY001-SUBJ0012,39,BP,Blood Pressure,111/69,mmHg,111/69,,mmHg,,WEEK 16,8,2026-03-07,112
STUDY001,VS,STUDY001-SUBJ0012,40,HR,Heart Rate,87,beats/min,87,87.0,beats/min,,WEEK 16,8,2026-03-07,112
STUDY001,VS,STUDY001-SUBJ0012,41,HEIGHT,Height,171.4,cm,171.4,171.4,cm,,END OF TREATMENT,9,2026-04-04,140
STUDY001,VS,STUDY001-SUBJ0012,42,WEIGHT,Weight,50.8,kg,50.8,50.8,kg,,END OF TREATMENT,9,2026-04-04,140
STUDY001,VS,STUDY001-SUBJ0012,43,TEMP,Temperature,36.0,C,36.0,36.0,C,,END OF TREATMENT,9,2026-04-04,140
STUDY001,VS,STUDY001-SUBJ0012,44,BP,Blood Pressure,108/77,mmHg,108/77,,mmHg,,END OF TREATMENT,9,2026-04-04,140
STUDY001,VS,STUDY001-SUBJ0012,45,HR,Heart Rate,89,beats/min,89,89.0,beats/min,,END OF TREATMENT,9,2026-04-04,140
STUDY001,VS,STUDY001-SUBJ0013,1,HEIGHT,Height,171.5,cm,171.5,171.5,cm,,SCREENING,1,2025-03-18,-14
STUDY001,VS,STUDY001-SUBJ0013,2,WEIGHT,Weight,74.7,kg,74.7,74.7,kg,,SCREENING,1,2025-03-18,-14
STUDY001,VS,STUDY001-SUBJ0013,3,TEMP,Temperature,36.5,C,36.5,36.5,C,,SCREENING,1,2025-03-18,-14
STUDY001,VS,STUDY001-SUBJ0013,4,BP,Blood Pressure,148/83,mmHg,148/83,,mmHg,,SCREENING,1,2025-03-18,-14
STUDY001,VS,STUDY001-SUBJ0013,5,HR,Heart Rate,82,beats/min,82,82.0,beats/min,,SCREENING,1,2025-03-18,-14
STUDY001,VS,STUDY001-SUBJ0013,6,HEIGHT,Height,171.6,cm,171.6,171.6,cm,Y,BASELINE,2,2025-04-01,1
STUDY001,VS,STUDY001-SUBJ0013,7,WEIGHT,Weight,74.7,kg,74.7,74.7,kg,Y,BASELINE,2,2025-04-01,1
STUDY001,VS,STUDY001-SUBJ0013,8,TEMP,Temperature,36.5,C,36.5,36.5,C,Y,BASELINE,2,2025-04-01,1
STUDY001,VS,STUDY001-SUBJ0013,9,BP,Blood Pressure,148/86,mmHg,148/86,,mmHg,Y,BASELINE,2,2025-04-01,1
STUDY001,VS,STUDY001-SUBJ0013,10,HR,Heart Rate,80,beats/min,80,80.0,beats/min,Y,BASELINE,2,2025-04-01,1
STUDY001,VS,STUDY001-SUBJ0013,11,HEIGHT,Height,171.4,cm,171.4,171.4,cm,,WEEK 1,3,2025-04-07,7
STUDY001,VS,STUDY001-SUBJ0013,12,WEIGHT,Weight,74.7,kg,74.7,74.7,kg,,WEEK 1,3,2025-04-07,7
STUDY001,VS,STUDY001-SUBJ0013,13,TEMP,Temperature,37.0,C,37.0,37.0,C,,WEEK 1,3,2025-04-07,7
STUDY001,VS,STUDY001-SUBJ0013,14,BP,Blood Pressure,147/80,mmHg,147/80,,mmHg,,WEEK 1,3,2025-04-07,7
STUDY001,VS,STUDY001-SUBJ0013,15,HR,Heart Rate,83,beats/min,83,83.0,beats/min,,WEEK 1,3,2025-04-07,7
STUDY001,VS,STUDY001-SUBJ0013,16,HEIGHT,Height,171.6,cm,171.6,171.6,cm,,WEEK 2,4,2025-04-14,14
STUDY001,VS,STUDY001-SUBJ0013,17,WEIGHT,Weight,75.4,kg,75.4,75.4,kg,,WEEK 2,4,2025-04-14,14
STUDY001,VS,STUDY001-SUBJ0013,18,TEMP,Temperature,36.6,C,36.6,36.6,C,,WEEK 2,4,2025-04-14,14
STUDY001,VS,STUDY001-SUBJ0013,19,BP,Blood Pressure,140/85,mmHg,140/85,,mmHg,,WEEK 2,4,2025-04-14,14
STUDY001,VS,STUDY001-SUBJ0013,20,HR,Heart Rate,88,beats/min,88,88.0,beats/min,,WEEK 2,4,2025-04-14,14
STUDY001,VS,STUDY001-SUBJ0013,21,HEIGHT,Height,171.6,cm,171.6,171.6,cm,,WEEK 4,5,2025-04-28,28
STUDY001,VS,STUDY001-SUBJ0013,22,WEIGHT,Weight,75.5,kg,75.5,75.5,kg,,WEEK 4,5,2025-04-28,28
STUDY001,VS,STUDY001-SUBJ0013,23,TEMP,Temperature,37.0,C,37.0,37.0,C,,WEEK 4,5,2025-04-28,28
STUDY001,VS,STUDY001-SUBJ0013,24,BP,Blood Pressure,141/84,mmHg,141/84,,mmHg,,WEEK 4,5,2025-04-28,28
STUDY001,VS,STUDY001-SUBJ0013,25,HR,Heart Rate,84,beats/min,84,84.0,beats/min,,WEEK 4,5,2025-04-28,28
STUDY001,VS,STUDY001-SUBJ0013,26,HEIGHT,Height,171.4,cm,171.4,171.4,cm,,WEEK 8,6,2025-05-26,56
STUDY001,VS,STUDY001-SUBJ0013,27,WEIGHT,Weight,75.2,kg,75.2,75.2,kg,,WEEK 8,6,2025-05-26,56
STUDY001,VS,STUDY001-SUBJ0013,28,TEMP,Temperature,37.0,C,37.0,37.0,C,,WEEK 8,6,2025-05-26,56
STUDY001,VS,STUDY001-SUBJ0013,29,BP,Blood Pressure,140/82,mmHg,140/82,,mmHg,,WEEK 8,6,2025-05-26,56
STUDY001,VS,STUDY001-SUBJ0013,30,HR,Heart Rate,85,beats/min,85,85.0,beats/min,,WEEK 8,6,2025-05-26,56
STUDY001,VS,STUDY001-SUBJ0013,31,HEIGHT,Height,171.6,cm,171.6,171.6,cm,,WEEK 12,7,2025-06-23,84
STUDY001,VS,STUDY001-SUBJ0013,32,WEIGHT,Weight,74.5,kg,74.5,74.5,kg,,WEEK 12,7,2025-06-23,84
STUDY001,VS,STUDY001-SUBJ0013,33,TEMP,Temperature,36.8,C,36.8,36.8,C,,WEEK 12,7,2025-06-23,84
STUDY001,VS,STUDY001-SUBJ0013,34,BP,Blood Pressure,147/81,mmHg,147/81,,mmHg,,WEEK 12,7,2025-06-23,84
STUDY001,VS,STUDY001-SUBJ0013,35,HR,Heart Rate,82,beats/min,82,82.0,beats/min,,WEEK 12,7,2025-06-23,84
STUDY001,VS,STUDY001-SUBJ0013,36,HEIGHT,Height,171.6,cm,171.6,171.6,cm,,WEEK 16,8,2025-07-21,112
STUDY001,VS,STUDY001-SUBJ0013,37,WEIGHT,Weight,74.8,kg,74.8,74.8,kg,,WEEK 16,8,2025-07-21,112
STUDY001,VS,STUDY001-SUBJ0013,38,TEMP,Temperature,36.7,C,36.7,36.7,C,,WEEK 16,8,2025-07-21,112
STUDY001,VS,STUDY001-SUBJ0013,39,BP,Blood Pressure,143/85,mmHg,143/85,,mmHg,,WEEK 16,8,2025-07-21,112
STUDY001,VS,STUDY001-SUBJ0013,40,HR,Heart Rate,81,beats/min,81,81.0,beats/min,,WEEK 16,8,2025-07-21,112
STUDY001,VS,STUDY001-SUBJ0013,41,HEIGHT,Height,171.5,cm,171.5,171.5,cm,,END OF TREATMENT,9,2025-08-18,140
STUDY001,VS,STUDY001-SUBJ0013,42,WEIGHT,Weight,76.1,kg,76.1,76.1,kg,,END OF TREATMENT,9,2025-08-18,140
STUDY001,VS,STUDY001-SUBJ0013,43,TEMP,Temperature,36.9,C,36.9,36.9,C,,END OF TREATMENT,9,2025-08-18,140
STUDY001,VS,STUDY001-SUBJ0013,44,BP,Blood Pressure,146/79,mmHg,146/79,,mmHg,,END OF TREATMENT,9,2025-08-18,140
STUDY001,VS,STUDY001-SUBJ0013,45,HR,Heart Rate,85,beats/min,85,85.0,beats/min,,END OF TREATMENT,9,2025-08-18,140
STUDY001,VS,STUDY001-SUBJ0014,1,HEIGHT,Height,183.5,cm,183.5,183.5,cm,,SCREENING,1,2025-02-24,-14
STUDY001,VS,STUDY001-SUBJ0014,2,WEIGHT,Weight,63.4,kg,63.4,63.4,kg,,SCREENING,1,2025-02-24,-14
STUDY001,VS,STUDY001-SUBJ0014,3,TEMP,Temperature,36.2,C,36.2,36.2,C,,SCREENING,1,2025-02-24,-14
STUDY001,VS,STUDY001-SUBJ0014,4,BP,Blood Pressure,132/88,mmHg,132/88,,mmHg,,SCREENING,1,2025-02-24,-14
STUDY001,VS,STUDY001-SUBJ0014,5,HR,Heart Rate,70,beats/min,70,70.0,beats/min,,SCREENING,1,2025-02-24,-14
STUDY001,VS,STUDY001-SUBJ0014,6,HEIGHT,Height,183.4,cm,183.4,183.4,cm,Y,BASELINE,2,2025-03-10,1
STUDY001,VS,STUDY001-SUBJ0014,7,WEIGHT,Weight,62.9,kg,62.9,62.9,kg,Y,BASELINE,2,2025-03-10,1
STUDY001,VS,STUDY001-SUBJ0014,8,TEMP,Temperature,36.3,C,36.3,36.3,C,Y,BASELINE,2,2025-03-10,1
STUDY001,VS,STUDY001-SUBJ0014,9,BP,Blood Pressure,133/88,mmHg,133/88,,mmHg,Y,BASELINE,2,2025-03-10,1
STUDY001,VS,STUDY001-SUBJ0014,10,HR,Heart Rate,75,beats/min,75,75.0,beats/min,Y,BASELINE,2,2025-03-10,1
STUDY001,VS,STUDY001-SUBJ0014,11,HEIGHT,Height,183.5,cm,183.5,183.5,cm,,WEEK 1,3,2025-03-16,7
STUDY001,VS,STUDY001-SUBJ0014,12,WEIGHT,Weight,63.4,kg,63.4,63.4,kg,,WEEK 1,3,2025-03-16,7
STUDY001,VS,STUDY001-SUBJ0014,13,TEMP,Temperature,36.3,C,36.3,36.3,C,,WEEK 1,3,2025-03-16,7
STUDY001,VS,STUDY001-SUBJ0014,14,BP,Blood Pressure,140/79,mmHg,140/79,,mmHg,,WEEK 1,3,2025-03-16,7
STUDY001,VS,STUDY001-SUBJ0014,15,HR,Heart Rate,65,beats/min,65,65.0,beats/min,,WEEK 1,3,2025-03-16,7
STUDY001,VS,STUDY001-SUBJ0014,16,HEIGHT,Height,183.3,cm,183.3,183.3,cm,,WEEK 2,4,2025-03-23,14
STUDY001,VS,STUDY001-SUBJ0014,17,WEIGHT,Weight,64.7,kg,64.7,64.7,kg,,WEEK 2,4,2025-03-23,14
STUDY001,VS,STUDY001-SUBJ0014,18,TEMP,Temperature,36.3,C,36.3,36.3,C,,WEEK 2,4,2025-03-23,14
STUDY001,VS,STUDY001-SUBJ0014,19,BP,Blood Pressure,138/84,mmHg,138/84,,mmHg,,WEEK 2,4,2025-03-23,14
STUDY001,VS,STUDY001-SUBJ0014,20,HR,Heart Rate,74,beats/min,74,74.0,beats/min,,WEEK 2,4,2025-03-23,14
STUDY001,VS,STUDY001-SUBJ0014,21,HEIGHT,Height,183.3,cm,183.3,183.3,cm,,WEEK 4,5,2025-04-06,28
STUDY001,VS,STUDY001-SUBJ0014,22,WEIGHT,Weight,63.1,kg,63.1,63.1,kg,,WEEK 4,5,2025-04-06,28
STUDY001,VS,STUDY001-SUBJ0014,23,TEMP,Temperature,36.5,C,36.5,36.5,C,,WEEK 4,5,2025-04-06,28
STUDY001,VS,STUDY001-SUBJ0014,24,BP,Blood Pressure,133/87,mmHg,133/87,,mmHg,,WEEK 4,5,2025-04-06,28
STUDY001,VS,STUDY001-SUBJ0014,25,HR,Heart Rate,75,beats/min,75,75.0,beats/min,,WEEK 4,5,2025-04-06,28
STUDY001,VS,STUDY001-SUBJ0014,26,HEIGHT,Height,183.7,cm,183.7,183.7,cm,,WEEK 8,6,2025-05-04,56
STUDY001,VS,STUDY001-SUBJ0014,27,WEIGHT,Weight,62.8,kg,62.8,62.8,kg,,WEEK 8,6,2025-05-04,56
STUDY001,VS,STUDY001-SUBJ0014,28,TEMP,Temperature,36.0,C,36.0,36.0,C,,WEEK 8,6,2025-05-04,56
STUDY001,VS,STUDY001-SUBJ0014,29,BP,Blood Pressure,135/80,mmHg,135/80,,mmHg,,WEEK 8,6,2025-05-04,56
STUDY001,VS,STUDY001-SUBJ0014,30,HR,Heart Rate,72,beats/min,72,72.0,beats/min,,WEEK 8,6,2025-05-04,56
STUDY001,VS,STUDY001-SUBJ0014,31,HEIGHT,Height,183.4,cm,183.4,183.4,cm,,WEEK 12,7,2025-06-01,84
STUDY001,VS,STUDY001-SUBJ0014,32,WEIGHT,Weight,64.2,kg,64.2,64.2,kg,,WEEK 12,7,2025-06-01,84
STUDY001,VS,STUDY001-SUBJ0014,33,TEMP,Temperature,36.5,C,36.5,36.5,C,,WEEK 12,7,2025-06-01,84
STUDY001,VS,STUDY001-SUBJ0014,34,BP,Blood Pressure,133/78,mmHg,133/78,,mmHg,,WEEK 12,7,2025-06-01,84
STUDY001,VS,STUDY001-SUBJ0014,35,HR,Heart Rate,70,beats/min,70,70.0,beats/min,,WEEK 12,7,2025-06-01,84
STUDY001,VS,STUDY001-SUBJ0014,36,HEIGHT,Height,183.4,cm,183.4,183.4,cm,,WEEK 16,8,2025-06-29,112
STUDY001,VS,STUDY001-SUBJ0014,37,WEIGHT,Weight,64.5,kg,64.5,64.5,kg,,WEEK 16,8,2025-06-29,112
STUDY001,VS,STUDY001-SUBJ0014,38,TEMP,Temperature,36.1,C,36.1,36.1,C,,WEEK 16,8,2025-06-29,112
STUDY001,VS,STUDY001-SUBJ0014,39,BP,Blood Pressure,133/86,mmHg,133/86,,mmHg,,WEEK 16,8,2025-06-29,112
STUDY001,VS,STUDY001-SUBJ0014,40,HR,Heart Rate,71,beats/min,71,71.0,beats/min,,WEEK 16,8,2025-06-29,112
STUDY001,VS,STUDY001-SUBJ0014,41,HEIGHT,Height,183.4,cm,183.4,183.4,cm,,END OF TREATMENT,9,2025-07-27,140
STUDY001,VS,STUDY001-SUBJ0014,42,WEIGHT,Weight,64.2,kg,64.2,64.2,kg,,END OF TREATMENT,9,2025-07-27,140
STUDY001,VS,STUDY001-SUBJ0014,43,TEMP,Temperature,36.3,C,36.3,36.3,C,,END OF TREATMENT,9,2025-07-27,140
STUDY001,VS,STUDY001-SUBJ0014,44,BP,Blood Pressure,132/84,mmHg,132/84,,mmHg,,END OF TREATMENT,9,2025-07-27,140
STUDY001,VS,STUDY001-SUBJ0014,45,HR,Heart Rate,72,beats/min,72,72.0,beats/min,,END OF TREATMENT,9,2025-07-27,140
STUDY001,VS,STUDY001-SUBJ0015,1,HEIGHT,Height,168.7,cm,168.7,168.7,cm,,SCREENING,1,2025-06-23,-14
STUDY001,VS,STUDY001-SUBJ0015,2,WEIGHT,Weight,103.8,kg,103.8,103.8,kg,,SCREENING,1,2025-06-23,-14
STUDY001,VS,STUDY001-SUBJ0015,3,TEMP,Temperature,37.3,C,37.3,37.3,C,,SCREENING,1,2025-06-23,-14
STUDY001,VS,STUDY001-SUBJ0015,4,BP,Blood Pressure,127/74,mmHg,127/74,,mmHg,,SCREENING,1,2025-06-23,-14
STUDY001,VS,STUDY001-SUBJ0015,5,HR,Heart Rate,78,beats/min,78,78.0,beats/min,,SCREENING,1,2025-06-23,-14
STUDY001,VS,STUDY001-SUBJ0015,6,HEIGHT,Height,168.5,cm,168.5,168.5,cm,Y,BASELINE,2,2025-07-07,1
STUDY001,VS,STUDY001-SUBJ0015,7,WEIGHT,Weight,103.2,kg,103.2,103.2,kg,Y,BASELINE,2,2025-07-07,1
STUDY001,VS,STUDY001-SUBJ0015,8,TEMP,Temperature,37.0,C,37.0,37.0,C,Y,BASELINE,2,2025-07-07,1
STUDY001,VS,STUDY001-SUBJ0015,9,BP,Blood Pressure,122/71,mmHg,122/71,,mmHg,Y,BASELINE,2,2025-07-07,1
STUDY001,VS,STUDY001-SUBJ0015,10,HR,Heart Rate,70,beats/min,70,70.0,beats/min,Y,BASELINE,2,2025-07-07,1
STUDY001,VS,STUDY001-SUBJ0015,11,HEIGHT,Height,168.6,cm,168.6,168.6,cm,,WEEK 1,3,2025-07-13,7
STUDY001,VS,STUDY001-SUBJ0015,12,WEIGHT,Weight,102.3,kg,102.3,102.3,kg,,WEEK 1,3,2025-07-13,7
STUDY001,VS,STUDY001-SUBJ0015,13,TEMP,Temperature,37.1,C,37.1,37.1,C,,WEEK 1,3,2025-07-13,7
STUDY001,VS,STUDY001-SUBJ0015,14,BP,Blood Pressure,120/70,mmHg,120/70,,mmHg,,WEEK 1,3,2025-07-13,7
STUDY001,VS,STUDY001-SUBJ0015,15,HR,Heart Rate,77,beats/min,77,77.0,beats/min,,WEEK 1,3,2025-07-13,7
STUDY001,VS,STUDY001-SUBJ0015,16,HEIGHT,Height,168.8,cm,168.8,168.8,cm,,WEEK 2,4,2025-07-20,14
STUDY001,VS,STUDY001-SUBJ0015,17,WEIGHT,Weight,103.2,kg,103.2,103.2,kg,,WEEK 2,4,2025-07-20,14
STUDY001,VS,STUDY001-SUBJ0015,18,TEMP,Temperature,36.9,C,36.9,36.9,C,,WEEK 2,4,2025-07-20,14
STUDY001,VS,STUDY001-SUBJ0015,19,BP,Blood Pressure,122/71,mmHg,122/71,,mmHg,,WEEK 2,4,2025-07-20,14
STUDY001,VS,STUDY001-SUBJ0015,20,HR,Heart Rate,73,beats/min,73,73.0,beats/min,,WEEK 2,4,2025-07-20,14
STUDY001,VS,STUDY001-SUBJ0015,21,HEIGHT,Height,168.5,cm,168.5,168.5,cm,,WEEK 4,5,2025-08-03,28
STUDY001,VS,STUDY001-SUBJ0015,22,WEIGHT,Weight,103.4,kg,103.4,103.4,kg,,WEEK 4,5,2025-08-03,28
STUDY001,VS,STUDY001-SUBJ0015,23,TEMP,Temperature,36.7,C,36.7,36.7,C,,WEEK 4,5,2025-08-03,28
STUDY001,VS,STUDY001-SUBJ0015,24,BP,Blood Pressure,123/73,mmHg,123/73,,mmHg,,WEEK 4,5,2025-08-03,28
STUDY001,VS,STUDY001-SUBJ0015,25,HR,Heart Rate,78,beats/min,78,78.0,beats/min,,WEEK 4,5,2025-08-03,28
STUDY001,VS,STUDY001-SUBJ0015,26,HEIGHT,Height,168.7,cm,168.7,168.7,cm,,WEEK 8,6,2025-08-31,56
STUDY001,VS,STUDY001-SUBJ0015,27,WEIGHT,Weight,102.6,kg,102.6,102.6,kg,,WEEK 8,6,2025-08-31,56
STUDY001,VS,STUDY001-SUBJ0015,28,TEMP,Temperature,36.8,C,36.8,36.8,C,,WEEK 8,6,2025-08-31,56
STUDY001,VS,STUDY001-SUBJ0015,29,BP,Blood Pressure,124/70,mmHg,124/70,,mmHg,,WEEK 8,6,2025-08-31,56
STUDY001,VS,STUDY001-SUBJ0015,30,HR,Heart Rate,75,beats/min,75,75.0,beats/min,,WEEK 8,6,2025-08-31,56
STUDY001,VS,STUDY001-SUBJ0015,31,HEIGHT,Height,168.8,cm,168.8,168.8,cm,,WEEK 12,7,2025-09-28,84
STUDY001,VS,STUDY001-SUBJ0015,32,WEIGHT,Weight,103.6,kg,103.6,103.6,kg,,WEEK 12,7,2025-09-28,84
STUDY001,VS,STUDY001-SUBJ0015,33,TEMP,Temperature,37.0,C,37.0,37.0,C,,WEEK 12,7,2025-09-28,84
STUDY001,VS,STUDY001-SUBJ0015,34,BP,Blood Pressure,120/70,mmHg,120/70,,mmHg,,WEEK 12,7,2025-09-28,84
STUDY001,VS,STUDY001-SUBJ0015,35,HR,Heart Rate,75,beats/min,75,75.0,beats/min,,WEEK 12,7,2025-09-28,84
STUDY001,VS,STUDY001-SUBJ0015,36,HEIGHT,Height,168.9,cm,168.9,168.9,cm,,WEEK 16,8,2025-10-26,112
STUDY001,VS,STUDY001-SUBJ0015,37,WEIGHT,Weight,103.0,kg,103.0,103.0,kg,,WEEK 16,8,2025-10-26,112
STUDY001,VS,STUDY001-SUBJ0015,38,TEMP,Temperature,37.2,C,37.2,37.2,C,,WEEK 16,8,2025-10-26,112
STUDY001,VS,STUDY001-SUBJ0015,39,BP,Blood Pressure,125/70,mmHg,125/70,,mmHg,,WEEK 16,8,2025-10-26,112
STUDY001,VS,STUDY001-SUBJ0015,40,HR,Heart Rate,71,beats/min,71,71.0,beats/min,,WEEK 16,8,2025-10-26,112
STUDY001,VS,STUDY001-SUBJ0015,41,HEIGHT,Height,168.6,cm,168.6,168.6,cm,,END OF TREATMENT,9,2025-11-23,140
STUDY001,VS,STUDY001-SUBJ0015,42,WEIGHT,Weight,102.3,kg,102.3,102.3,kg,,END OF TREATMENT,9,2025-11-23,140
STUDY001,VS,STUDY001-SUBJ0015,43,TEMP,Temperature,36.8,C,36.8,36.8,C,,END OF TREATMENT,9,2025-11-23,140
STUDY001,VS,STUDY001-SUBJ0015,44,BP,Blood Pressure,125/70,mmHg,125/70,,mmHg,,END OF TREATMENT,9,2025-11-23,140
STUDY001,VS,STUDY001-SUBJ0015,45,HR,Heart Rate,77,beats/min,77,77.0,beats/min,,END OF TREATMENT,9,2025-11-23,140
STUDY001,VS,STUDY001-SUBJ0016,1,HEIGHT,Height,173.9,cm,173.9,173.9,cm,,SCREENING,1,2025-03-18,-14
STUDY001,VS,STUDY001-SUBJ0016,2,WEIGHT,Weight,85.9,kg,85.9,85.9,kg,,SCREENING,1,2025-03-18,-14
STUDY001,VS,STUDY001-SUBJ0016,3,TEMP,Temperature,36.3,C,36.3,36.3,C,,SCREENING,1,2025-03-18,-14
STUDY001,VS,STUDY001-SUBJ0016,4,BP,Blood Pressure,130/75,mmHg,130/75,,mmHg,,SCREENING,1,2025-03-18,-14
STUDY001,VS,STUDY001-SUBJ0016,5,HR,Heart Rate,82,beats/min,82,82.0,beats/min,,SCREENING,1,2025-03-18,-14
STUDY001,VS,STUDY001-SUBJ0016,6,HEIGHT,Height,173.9,cm,173.9,173.9,cm,Y,BASELINE,2,2025-04-01,1
STUDY001,VS,STUDY001-SUBJ0016,7,WEIGHT,Weight,85.3,kg,85.3,85.3,kg,Y,BASELINE,2,2025-04-01,1
STUDY001,VS,STUDY001-SUBJ0016,8,TEMP,Temperature,36.2,C,36.2,36.2,C,Y,BASELINE,2,2025-04-01,1
STUDY001,VS,STUDY001-SUBJ0016,9,BP,Blood Pressure,128/78,mmHg,128/78,,mmHg,Y,BASELINE,2,2025-04-01,1
STUDY001,VS,STUDY001-SUBJ0016,10,HR,Heart Rate,81,beats/min,81,81.0,beats/min,Y,BASELINE,2,2025-04-01,1
STUDY001,VS,STUDY001-SUBJ0016,11,HEIGHT,Height,173.9,cm,173.9,173.9,cm,,WEEK 1,3,2025-04-07,7
STUDY001,VS,STUDY001-SUBJ0016,12,WEIGHT,Weight,84.6,kg,84.6,84.6,kg,,WEEK 1,3,2025-04-07,7
STUDY001,VS,STUDY001-SUBJ0016,13,TEMP,Temperature,35.8,C,35.8,35.8,C,,WEEK 1,3,2025-04-07,7
STUDY001,VS,STUDY001-SUBJ0016,14,BP,Blood Pressure,125/78,mmHg,125/78,,mmHg,,WEEK 1,3,2025-04-07,7
STUDY001,VS,STUDY001-SUBJ0016,15,HR,Heart Rate,82,beats/min,82,82.0,beats/min,,WEEK 1,3,2025-04-07,7
STUDY001,VS,STUDY001-SUBJ0016,16,HEIGHT,Height,173.8,cm,173.8,173.8,cm,,WEEK 2,4,2025-04-14,14
STUDY001,VS,STUDY001-SUBJ0016,17,WEIGHT,Weight,85.8,kg,85.8,85.8,kg,,WEEK 2,4,2025-04-14,14
STUDY001,VS,STUDY001-SUBJ0016,18,TEMP,Temperature,36.1,C,36.1,36.1,C,,WEEK 2,4,2025-04-14,14
STUDY001,VS,STUDY001-SUBJ0016,19,BP,Blood Pressure,127/76,mmHg,127/76,,mmHg,,WEEK 2,4,2025-04-14,14
STUDY001,VS,STUDY001-SUBJ0016,20,HR,Heart Rate,83,beats/min,83,83.0,beats/min,,WEEK 2,4,2025-04-14,14
STUDY001,VS,STUDY001-SUBJ0016,21,HEIGHT,Height,173.8,cm,173.8,173.8,cm,,WEEK 4,5,2025-04-28,28
STUDY001,VS,STUDY001-SUBJ0016,22,WEIGHT,Weight,86.1,kg,86.1,86.1,kg,,WEEK 4,5,2025-04-28,28
STUDY001,VS,STUDY001-SUBJ0016,23,TEMP,Temperature,36.1,C,36.1,36.1,C,,WEEK 4,5,2025-04-28,28
STUDY001,VS,STUDY001-SUBJ0016,24,BP,Blood Pressure,125/75,mmHg,125/75,,mmHg,,WEEK 4,5,2025-04-28,28
STUDY001,VS,STUDY001-SUBJ0016,25,HR,Heart Rate,79,beats/min,79,79.0,beats/min,,WEEK 4,5,2025-04-28,28
STUDY001,VS,STUDY001-SUBJ0016,26,HEIGHT,Height,174.1,cm,174.1,174.1,cm,,WEEK 8,6,2025-05-26,56
STUDY001,VS,STUDY001-SUBJ0016,27,WEIGHT,Weight,85.3,kg,85.3,85.3,kg,,WEEK 8,6,2025-05-26,56
STUDY001,VS,STUDY001-SUBJ0016,28,TEMP,Temperature,35.8,C,35.8,35.8,C,,WEEK 8,6,2025-05-26,56
STUDY001,VS,STUDY001-SUBJ0016,29,BP,Blood Pressure,125/80,mmHg,125/80,,mmHg,,WEEK 8,6,2025-05-26,56
STUDY001,VS,STUDY001-SUBJ0016,30,HR,Heart Rate,88,beats/min,88,88.0,beats/min,,WEEK 8,6,2025-05-26,56
STUDY001,VS,STUDY001-SUBJ0016,31,HEIGHT,Height,173.8,cm,173.8,173.8,cm,,WEEK 12,7,2025-06-23,84
STUDY001,VS,STUDY001-SUBJ0016,32,WEIGHT,Weight,84.9,kg,84.9,84.9,kg,,WEEK 12,7,2025-06-23,84
STUDY001,VS,STUDY001-SUBJ0016,33,TEMP,Temperature,35.8,C,35.8,35.8,C,,WEEK 12,7,2025-06-23,84
STUDY001,VS,STUDY001-SUBJ0016,34,BP,Blood Pressure,122/79,mmHg,122/79,,mmHg,,WEEK 12,7,2025-06-23,84
STUDY001,VS,STUDY001-SUBJ0016,35,HR,Heart Rate,87,beats/min,87,87.0,beats/min,,WEEK 12,7,2025-06-23,84
STUDY001,VS,STUDY001-SUBJ0016,36,HEIGHT,Height,173.7,cm,173.7,173.7,cm,,WEEK 16,8,2025-07-21,112
STUDY001,VS,STUDY001-SUBJ0016,37,WEIGHT,Weight,84.9,kg,84.9,84.9,kg,,WEEK 16,8,2025-07-21,112
STUDY001,VS,STUDY001-SUBJ0016,38,TEMP,Temperature,36.1,C,36.1,36.1,C,,WEEK 16,8,2025-07-21,112
STUDY001,VS,STUDY001-SUBJ0016,39,BP,Blood Pressure,131/72,mmHg,131/72,,mmHg,,WEEK 16,8,2025-07-21,112
STUDY001,VS,STUDY001-SUBJ0016,40,HR,Heart Rate,83,beats/min,83,83.0,beats/min,,WEEK 16,8,2025-07-21,112
STUDY001,VS,STUDY001-SUBJ0016,41,HEIGHT,Height,173.8,cm,173.8,173.8,cm,,END OF TREATMENT,9,2025-08-18,140
STUDY001,VS,STUDY001-SUBJ0016,42,WEIGHT,Weight,84.9,kg,84.9,84.9,kg,,END OF TREATMENT,9,2025-08-18,140
STUDY001,VS,STUDY001-SUBJ0016,43,TEMP,Temperature,35.9,C,35.9,35.9,C,,END OF TREATMENT,9,2025-08-18,140
STUDY001,VS,STUDY001-SUBJ0016,44,BP,Blood Pressure,125/80,mmHg,125/80,,mmHg,,END OF TREATMENT,9,2025-08-18,140
STUDY001,VS,STUDY001-SUBJ0016,45,HR,Heart Rate,83,beats/min,83,83.0,beats/min,,END OF TREATMENT,9,2025-08-18,140
STUDY001,VS,STUDY001-SUBJ0017,1,HEIGHT,Height,186.2,cm,186.2,186.2,cm,,SCREENING,1,2025-07-03,-14
STUDY001,VS,STUDY001-SUBJ0017,2,WEIGHT,Weight,56.4,kg,56.4,56.4,kg,,SCREENING,1,2025-07-03,-14
STUDY001,VS,STUDY001-SUBJ0017,3,TEMP,Temperature,36.5,C,36.5,36.5,C,,SCREENING,1,2025-07-03,-14
STUDY001,VS,STUDY001-SUBJ0017,4,BP,Blood Pressure,120/73,mmHg,120/73,,mmHg,,SCREENING,1,2025-07-03,-14
STUDY001,VS,STUDY001-SUBJ0017,5,HR,Heart Rate,83,beats/min,83,83.0,beats/min,,SCREENING,1,2025-07-03,-14
STUDY001,VS,STUDY001-SUBJ0017,6,HEIGHT,Height,186.3,cm,186.3,186.3,cm,Y,BASELINE,2,2025-07-17,1
STUDY001,VS,STUDY001-SUBJ0017,7,WEIGHT,Weight,55.8,kg,55.8,55.8,kg,Y,BASELINE,2,2025-07-17,1
STUDY001,VS,STUDY001-SUBJ0017,8,TEMP,Temperature,36.0,C,36.0,36.0,C,Y,BASELINE,2,2025-07-17,1
STUDY001,VS,STUDY001-SUBJ0017,9,BP,Blood Pressure,117/81,mmHg,117/81,,mmHg,Y,BASELINE,2,2025-07-17,1
STUDY001,VS,STUDY001-SUBJ0017,10,HR,Heart Rate,86,beats/min,86,86.0,beats/min,Y,BASELINE,2,2025-07-17,1
STUDY001,VS,STUDY001-SUBJ0017,11,HEIGHT,Height,186.3,cm,186.3,186.3,cm,,WEEK 1,3,2025-07-23,7
STUDY001,VS,STUDY001-SUBJ0017,12,WEIGHT,Weight,55.1,kg,55.1,55.1,kg,,WEEK 1,3,2025-07-23,7
STUDY001,VS,STUDY001-SUBJ0017,13,TEMP,Temperature,36.2,C,36.2,36.2,C,,WEEK 1,3,2025-07-23,7
STUDY001,VS,STUDY001-SUBJ0017,14,BP,Blood Pressure,114/78,mmHg,114/78,,mmHg,,WEEK 1,3,2025-07-23,7
STUDY001,VS,STUDY001-SUBJ0017,15,HR,Heart Rate,85,beats/min,85,85.0,beats/min,,WEEK 1,3,2025-07-23,7
STUDY001,VS,STUDY001-SUBJ0017,16,HEIGHT,Height,186.2,cm,186.2,186.2,cm,,WEEK 2,4,2025-07-30,14
STUDY001,VS,STUDY001-SUBJ0017,17,WEIGHT,Weight,55.3,kg,55.3,55.3,kg,,WEEK 2,4,2025-07-30,14
STUDY001,VS,STUDY001-SUBJ0017,18,TEMP,Temperature,36.4,C,36.4,36.4,C,,WEEK 2,4,2025-07-30,14
STUDY001,VS,STUDY001-SUBJ0017,19,BP,Blood Pressure,121/81,mmHg,121/81,,mmHg,,WEEK 2,4,2025-07-30,14
STUDY001,VS,STUDY001-SUBJ0017,20,HR,Heart Rate,83,beats/min,83,83.0,beats/min,,WEEK 2,4,2025-07-30,14
STUDY001,VS,STUDY001-SUBJ0017,21,HEIGHT,Height,186.3,cm,186.3,186.3,cm,,WEEK 4,5,2025-08-13,28
STUDY001,VS,STUDY001-SUBJ0017,22,WEIGHT,Weight,56.2,kg,56.2,56.2,kg,,WEEK 4,5,2025-08-13,28
STUDY001,VS,STUDY001-SUBJ0017,23,TEMP,Temperature,36.5,C,36.5,36.5,C,,WEEK 4,5,2025-08-13,28
STUDY001,VS,STUDY001-SUBJ0017,24,BP,Blood Pressure,118/75,mmHg,118/75,,mmHg,,WEEK 4,5,2025-08-13,28
STUDY001,VS,STUDY001-SUBJ0017,25,HR,Heart Rate,86,beats/min,86,86.0,beats/min,,WEEK 4,5,2025-08-13,28
STUDY001,VS,STUDY001-SUBJ0017,26,HEIGHT,Height,186.2,cm,186.2,186.2,cm,,WEEK 8,6,2025-09-10,56
STUDY001,VS,STUDY001-SUBJ0017,27,WEIGHT,Weight,55.2,kg,55.2,55.2,kg,,WEEK 8,6,2025-09-10,56
STUDY001,VS,STUDY001-SUBJ0017,28,TEMP,Temperature,36.6,C,36.6,36.6,C,,WEEK 8,6,2025-09-10,56
STUDY001,VS,STUDY001-SUBJ0017,29,BP,Blood Pressure,121/81,mmHg,121/81,,mmHg,,WEEK 8,6,2025-09-10,56
STUDY001,VS,STUDY001-SUBJ0017,30,HR,Heart Rate,87,beats/min,87,87.0,beats/min,,WEEK 8,6,2025-09-10,56
STUDY001,VS,STUDY001-SUBJ0017,31,HEIGHT,Height,186.2,cm,186.2,186.2,cm,,WEEK 12,7,2025-10-08,84
STUDY001,VS,STUDY001-SUBJ0017,32,WEIGHT,Weight,56.1,kg,56.1,56.1,kg,,WEEK 12,7,2025-10-08,84
STUDY001,VS,STUDY001-SUBJ0017,33,TEMP,Temperature,36.0,C,36.0,36.0,C,,WEEK 12,7,2025-10-08,84
STUDY001,VS,STUDY001-SUBJ0017,34,BP,Blood Pressure,115/79,mmHg,115/79,,mmHg,,WEEK 12,7,2025-10-08,84
STUDY001,VS,STUDY001-SUBJ0017,35,HR,Heart Rate,77,beats/min,77,77.0,beats/min,,WEEK 12,7,2025-10-08,84
STUDY001,VS,STUDY001-SUBJ0017,36,HEIGHT,Height,186.3,cm,186.3,186.3,cm,,WEEK 16,8,2025-11-05,112
STUDY001,VS,STUDY001-SUBJ0017,37,WEIGHT,Weight,56.7,kg,56.7,56.7,kg,,WEEK 16,8,2025-11-05,112
STUDY001,VS,STUDY001-SUBJ0017,38,TEMP,Temperature,36.3,C,36.3,36.3,C,,WEEK 16,8,2025-11-05,112
STUDY001,VS,STUDY001-SUBJ0017,39,BP,Blood Pressure,119/75,mmHg,119/75,,mmHg,,WEEK 16,8,2025-11-05,112
STUDY001,VS,STUDY001-SUBJ0017,40,HR,Heart Rate,77,beats/min,77,77.0,beats/min,,WEEK 16,8,2025-11-05,112
STUDY001,VS,STUDY001-SUBJ0017,41,HEIGHT,Height,186.3,cm,186.3,186.3,cm,,END OF TREATMENT,9,2025-12-03,140
STUDY001,VS,STUDY001-SUBJ0017,42,WEIGHT,Weight,55.4,kg,55.4,55.4,kg,,END OF TREATMENT,9,2025-12-03,140
STUDY001,VS,STUDY001-SUBJ0017,43,TEMP,Temperature,36.4,C,36.4,36.4,C,,END OF TREATMENT,9,2025-12-03,140
STUDY001,VS,STUDY001-SUBJ0017,44,BP,Blood Pressure,118/81,mmHg,118/81,,mmHg,,END OF TREATMENT,9,2025-12-03,140
STUDY001,VS,STUDY001-SUBJ0017,45,HR,Heart Rate,78,beats/min,78,78.0,beats/min,,END OF TREATMENT,9,2025-12-03,140
STUDY001,VS,STUDY001-SUBJ0018,1,HEIGHT,Height,159.7,cm,159.7,159.7,cm,,SCREENING,1,2025-05-20,-14
STUDY001,VS,STUDY001-SUBJ0018,2,WEIGHT,Weight,62.5,kg,62.5,62.5,kg,,SCREENING,1,2025-05-20,-14
STUDY001,VS,STUDY001-SUBJ0018,3,TEMP,Temperature,36.6,C,36.6,36.6,C,,SCREENING,1,2025-05-20,-14
STUDY001,VS,STUDY001-SUBJ0018,4,BP,Blood Pressure,107/87,mmHg,107/87,,mmHg,,SCREENING,1,2025-05-20,-14
STUDY001,VS,STUDY001-SUBJ0018,5,HR,Heart Rate,80,beats/min,80,80.0,beats/min,,SCREENING,1,2025-05-20,-14
STUDY001,VS,STUDY001-SUBJ0018,6,HEIGHT,Height,159.7,cm,159.7,159.7,cm,Y,BASELINE,2,2025-06-03,1
STUDY001,VS,STUDY001-SUBJ0018,7,WEIGHT,Weight,62.3,kg,62.3,62.3,kg,Y,BASELINE,2,2025-06-03,1
STUDY001,VS,STUDY001-SUBJ0018,8,TEMP,Temperature,36.7,C,36.7,36.7,C,Y,BASELINE,2,2025-06-03,1
STUDY001,VS,STUDY001-SUBJ0018,9,BP,Blood Pressure,106/80,mmHg,106/80,,mmHg,Y,BASELINE,2,2025-06-03,1
STUDY001,VS,STUDY001-SUBJ0018,10,HR,Heart Rate,74,beats/min,74,74.0,beats/min,Y,BASELINE,2,2025-06-03,1
STUDY001,VS,STUDY001-SUBJ0018,11,HEIGHT,Height,159.8,cm,159.8,159.8,cm,,WEEK 1,3,2025-06-09,7
STUDY001,VS,STUDY001-SUBJ0018,12,WEIGHT,Weight,63.3,kg,63.3,63.3,kg,,WEEK 1,3,2025-06-09,7
STUDY001,VS,STUDY001-SUBJ0018,13,TEMP,Temperature,36.5,C,36.5,36.5,C,,WEEK 1,3,2025-06-09,7
STUDY001,VS,STUDY001-SUBJ0018,14,BP,Blood Pressure,109/87,mmHg,109/87,,mmHg,,WEEK 1,3,2025-06-09,7
STUDY001,VS,STUDY001-SUBJ0018,15,HR,Heart Rate,77,beats/min,77,77.0,beats/min,,WEEK 1,3,2025-06-09,7
STUDY001,VS,STUDY001-SUBJ0018,16,HEIGHT,Height,159.8,cm,159.8,159.8,cm,,WEEK 2,4,2025-06-16,14
STUDY001,VS,STUDY001-SUBJ0018,17,WEIGHT,Weight,62.1,kg,62.1,62.1,kg,,WEEK 2,4,2025-06-16,14
STUDY001,VS,STUDY001-SUBJ0018,18,TEMP,Temperature,36.6,C,36.6,36.6,C,,WEEK 2,4,2025-06-16,14
STUDY001,VS,STUDY001-SUBJ0018,19,BP,Blood Pressure,111/88,mmHg,111/88,,mmHg,,WEEK 2,4,2025-06-16,14
STUDY001,VS,STUDY001-SUBJ0018,20,HR,Heart Rate,75,beats/min,75,75.0,beats/min,,WEEK 2,4,2025-06-16,14
STUDY001,VS,STUDY001-SUBJ0018,21,HEIGHT,Height,159.9,cm,159.9,159.9,cm,,WEEK 4,5,2025-06-30,28
STUDY001,VS,STUDY001-SUBJ0018,22,WEIGHT,Weight,62.9,kg,62.9,62.9,kg,,WEEK 4,5,2025-06-30,28
STUDY001,VS,STUDY001-SUBJ0018,23,TEMP,Temperature,36.5,C,36.5,36.5,C,,WEEK 4,5,2025-06-30,28
STUDY001,VS,STUDY001-SUBJ0018,24,BP,Blood Pressure,105/81,mmHg,105/81,,mmHg,,WEEK 4,5,2025-06-30,28
STUDY001,VS,STUDY001-SUBJ0018,25,HR,Heart Rate,78,beats/min,78,78.0,beats/min,,WEEK 4,5,2025-06-30,28
STUDY001,VS,STUDY001-SUBJ0018,26,HEIGHT,Height,159.7,cm,159.7,159.7,cm,,WEEK 8,6,2025-07-28,56
STUDY001,VS,STUDY001-SUBJ0018,27,WEIGHT,Weight,62.1,kg,62.1,62.1,kg,,WEEK 8,6,2025-07-28,56
STUDY001,VS,STUDY001-SUBJ0018,28,TEMP,Temperature,36.6,C,36.6,36.6,C,,WEEK 8,6,2025-07-28,56
STUDY001,VS,STUDY001-SUBJ0018,29,BP,Blood Pressure,102/86,mmHg,102/86,,mmHg,,WEEK 8,6,2025-07-28,56
STUDY001,VS,STUDY001-SUBJ0018,30,HR,Heart Rate,75,beats/min,75,75.0,beats/min,,WEEK 8,6,2025-07-28,56
STUDY001,VS,STUDY001-SUBJ0018,31,HEIGHT,Height,159.6,cm,159.6,159.6,cm,,WEEK 12,7,2025-08-25,84
STUDY001,VS,STUDY001-SUBJ0018,32,WEIGHT,Weight,63.0,kg,63.0,63.0,kg,,WEEK 12,7,2025-08-25,84
STUDY001,VS,STUDY001-SUBJ0018,33,TEMP,Temperature,36.6,C,36.6,36.6,C,,WEEK 12,7,2025-08-25,84
STUDY001,VS,STUDY001-SUBJ0018,34,BP,Blood Pressure,102/82,mmHg,102/82,,mmHg,,WEEK 12,7,2025-08-25,84
STUDY001,VS,STUDY001-SUBJ0018,35,HR,Heart Rate,76,beats/min,76,76.0,beats/min,,WEEK 12,7,2025-08-25,84
STUDY001,VS,STUDY001-SUBJ0018,36,HEIGHT,Height,159.7,cm,159.7,159.7,cm,,WEEK 16,8,2025-09-22,112
STUDY001,VS,STUDY001-SUBJ0018,37,WEIGHT,Weight,63.8,kg,63.8,63.8,kg,,WEEK 16,8,2025-09-22,112
STUDY001,VS,STUDY001-SUBJ0018,38,TEMP,Temperature,36.6,C,36.6,36.6,C,,WEEK 16,8,2025-09-22,112
STUDY001,VS,STUDY001-SUBJ0018,39,BP,Blood Pressure,103/81,mmHg,103/81,,mmHg,,WEEK 16,8,2025-09-22,112
STUDY001,VS,STUDY001-SUBJ0018,40,HR,Heart Rate,76,beats/min,76,76.0,beats/min,,WEEK 16,8,2025-09-22,112
STUDY001,VS,STUDY001-SUBJ0018,41,HEIGHT,Height,159.7,cm,159.7,159.7,cm,,END OF TREATMENT,9,2025-10-20,140
STUDY001,VS,STUDY001-SUBJ0018,42,WEIGHT,Weight,62.4,kg,62.4,62.4,kg,,END OF TREATMENT,9,2025-10-20,140
STUDY001,VS,STUDY001-SUBJ0018,43,TEMP,Temperature,36.9,C,36.9,36.9,C,,END OF TREATMENT,9,2025-10-20,140
STUDY001,VS,STUDY001-SUBJ0018,44,BP,Blood Pressure,103/84,mmHg,103/84,,mmHg,,END OF TREATMENT,9,2025-10-20,140
STUDY001,VS,STUDY001-SUBJ0018,45,HR,Heart Rate,73,beats/min,73,73.0,beats/min,,END OF TREATMENT,9,2025-10-20,140
STUDY001,VS,STUDY001-SUBJ0019,1,HEIGHT,Height,155.4,cm,155.4,155.4,cm,,SCREENING,1,2025-10-19,-14
STUDY001,VS,STUDY001-SUBJ0019,2,WEIGHT,Weight,103.1,kg,103.1,103.1,kg,,SCREENING,1,2025-10-19,-14
STUDY001,VS,STUDY001-SUBJ0019,3,TEMP,Temperature,35.9,C,35.9,35.9,C,,SCREENING,1,2025-10-19,-14
STUDY001,VS,STUDY001-SUBJ0019,4,BP,Blood Pressure,125/88,mmHg,125/88,,mmHg,,SCREENING,1,2025-10-19,-14
STUDY001,VS,STUDY001-SUBJ0019,5,HR,Heart Rate,89,beats/min,89,89.0,beats/min,,SCREENING,1,2025-10-19,-14
STUDY001,VS,STUDY001-SUBJ0019,6,HEIGHT,Height,155.2,cm,155.2,155.2,cm,Y,BASELINE,2,2025-11-02,1
STUDY001,VS,STUDY001-SUBJ0019,7,WEIGHT,Weight,103.4,kg,103.4,103.4,kg,Y,BASELINE,2,2025-11-02,1
STUDY001,VS,STUDY001-SUBJ0019,8,TEMP,Temperature,35.8,C,35.8,35.8,C,Y,BASELINE,2,2025-11-02,1
STUDY001,VS,STUDY001-SUBJ0019,9,BP,Blood Pressure,121/85,mmHg,121/85,,mmHg,Y,BASELINE,2,2025-11-02,1
STUDY001,VS,STUDY001-SUBJ0019,10,HR,Heart Rate,83,beats/min,83,83.0,beats/min,Y,BASELINE,2,2025-11-02,1
STUDY001,VS,STUDY001-SUBJ0019,11,HEIGHT,Height,155.6,cm,155.6,155.6,cm,,WEEK 1,3,2025-11-08,7
STUDY001,VS,STUDY001-SUBJ0019,12,WEIGHT,Weight,103.6,kg,103.6,103.6,kg,,WEEK 1,3,2025-11-08,7
STUDY001,VS,STUDY001-SUBJ0019,13,TEMP,Temperature,36.3,C,36.3,36.3,C,,WEEK 1,3,2025-11-08,7
STUDY001,VS,STUDY001-SUBJ0019,14,BP,Blood Pressure,120/88,mmHg,120/88,,mmHg,,WEEK 1,3,2025-11-08,7
STUDY001,VS,STUDY001-SUBJ0019,15,HR,Heart Rate,82,beats/min,82,82.0,beats/min,,WEEK 1,3,2025-11-08,7
STUDY001,VS,STUDY001-SUBJ0019,16,HEIGHT,Height,155.6,cm,155.6,155.6,cm,,WEEK 2,4,2025-11-15,14
STUDY001,VS,STUDY001-SUBJ0019,17,WEIGHT,Weight,103.1,kg,103.1,103.1,kg,,WEEK 2,4,2025-11-15,14
STUDY001,VS,STUDY001-SUBJ0019,18,TEMP,Temperature,36.1,C,36.1,36.1,C,,WEEK 2,4,2025-11-15,14
STUDY001,VS,STUDY001-SUBJ0019,19,BP,Blood Pressure,122/81,mmHg,122/81,,mmHg,,WEEK 2,4,2025-11-15,14
STUDY001,VS,STUDY001-SUBJ0019,20,HR,Heart Rate,89,beats/min,89,89.0,beats/min,,WEEK 2,4,2025-11-15,14
STUDY001,VS,STUDY001-SUBJ0019,21,HEIGHT,Height,155.3,cm,155.3,155.3,cm,,WEEK 4,5,2025-11-29,28
STUDY001,VS,STUDY001-SUBJ0019,22,WEIGHT,Weight,102.6,kg,102.6,102.6,kg,,WEEK 4,5,2025-11-29,28
STUDY001,VS,STUDY001-SUBJ0019,23,TEMP,Temperature,36.1,C,36.1,36.1,C,,WEEK 4,5,2025-11-29,28
STUDY001,VS,STUDY001-SUBJ0019,24,BP,Blood Pressure,129/80,mmHg,129/80,,mmHg,,WEEK 4,5,2025-11-29,28
STUDY001,VS,STUDY001-SUBJ0019,25,HR,Heart Rate,88,beats/min,88,88.0,beats/min,,WEEK 4,5,2025-11-29,28
STUDY001,VS,STUDY001-SUBJ0019,26,HEIGHT,Height,155.4,cm,155.4,155.4,cm,,WEEK 8,6,2025-12-27,56
STUDY001,VS,STUDY001-SUBJ0019,27,WEIGHT,Weight,103.0,kg,103.0,103.0,kg,,WEEK 8,6,2025-12-27,56
STUDY001,VS,STUDY001-SUBJ0019,28,TEMP,Temperature,36.3,C,36.3,36.3,C,,WEEK 8,6,2025-12-27,56
STUDY001,VS,STUDY001-SUBJ0019,29,BP,Blood Pressure,126/88,mmHg,126/88,,mmHg,,WEEK 8,6,2025-12-27,56
STUDY001,VS,STUDY001-SUBJ0019,30,HR,Heart Rate,86,beats/min,86,86.0,beats/min,,WEEK 8,6,2025-12-27,56
STUDY001,VS,STUDY001-SUBJ0019,31,HEIGHT,Height,155.5,cm,155.5,155.5,cm,,WEEK 12,7,2026-01-24,84
STUDY001,VS,STUDY001-SUBJ0019,32,WEIGHT,Weight,102.3,kg,102.3,102.3,kg,,WEEK 12,7,2026-01-24,84
STUDY001,VS,STUDY001-SUBJ0019,33,TEMP,Temperature,36.0,C,36.0,36.0,C,,WEEK 12,7,2026-01-24,84
STUDY001,VS,STUDY001-SUBJ0019,34,BP,Blood Pressure,126/81,mmHg,126/81,,mmHg,,WEEK 12,7,2026-01-24,84
STUDY001,VS,STUDY001-SUBJ0019,35,HR,Heart Rate,86,beats/min,86,86.0,beats/min,,WEEK 12,7,2026-01-24,84
STUDY001,VS,STUDY001-SUBJ0019,36,HEIGHT,Height,155.5,cm,155.5,155.5,cm,,WEEK 16,8,2026-02-21,112
STUDY001,VS,STUDY001-SUBJ0019,37,WEIGHT,Weight,103.1,kg,103.1,103.1,kg,,WEEK 16,8,2026-02-21,112
STUDY001,VS,STUDY001-SUBJ0019,38,TEMP,Temperature,36.0,C,36.0,36.0,C,,WEEK 16,8,2026-02-21,112
STUDY001,VS,STUDY001-SUBJ0019,39,BP,Blood Pressure,126/88,mmHg,126/88,,mmHg,,WEEK 16,8,2026-02-21,112
STUDY001,VS,STUDY001-SUBJ0019,40,HR,Heart Rate,83,beats/min,83,83.0,beats/min,,WEEK 16,8,2026-02-21,112
STUDY001,VS,STUDY001-SUBJ0019,41,HEIGHT,Height,155.3,cm,155.3,155.3,cm,,END OF TREATMENT,9,2026-03-21,140
STUDY001,VS,STUDY001-SUBJ0019,42,WEIGHT,Weight,103.1,kg,103.1,103.1,kg,,END OF TREATMENT,9,2026-03-21,140
STUDY001,VS,STUDY001-SUBJ0019,43,TEMP,Temperature,36.1,C,36.1,36.1,C,,END OF TREATMENT,9,2026-03-21,140
STUDY001,VS,STUDY001-SUBJ0019,44,BP,Blood Pressure,120/83,mmHg,120/83,,mmHg,,END OF TREATMENT,9,2026-03-21,140
STUDY001,VS,STUDY001-SUBJ0019,45,HR,Heart Rate,89,beats/min,89,89.0,beats/min,,END OF TREATMENT,9,2026-03-21,140
STUDY001,VS,STUDY001-SUBJ0020,1,HEIGHT,Height,195.0,cm,195.0,195.0,cm,,SCREENING,1,2025-12-20,-14
STUDY001,VS,STUDY001-SUBJ0020,2,WEIGHT,Weight,65.8,kg,65.8,65.8,kg,,SCREENING,1,2025-12-20,-14
STUDY001,VS,STUDY001-SUBJ0020,3,TEMP,Temperature,36.1,C,36.1,36.1,C,,SCREENING,1,2025-12-20,-14
STUDY001,VS,STUDY001-SUBJ0020,4,BP,Blood Pressure,106/85,mmHg,106/85,,mmHg,,SCREENING,1,2025-12-20,-14
STUDY001,VS,STUDY001-SUBJ0020,5,HR,Heart Rate,63,beats/min,63,63.0,beats/min,,SCREENING,1,2025-12-20,-14
STUDY001,VS,STUDY001-SUBJ0020,6,HEIGHT,Height,195.1,cm,195.1,195.1,cm,Y,BASELINE,2,2026-01-03,1
STUDY001,VS,STUDY001-SUBJ0020,7,WEIGHT,Weight,67.4,kg,67.4,67.4,kg,Y,BASELINE,2,2026-01-03,1
STUDY001,VS,STUDY001-SUBJ0020,8,TEMP,Temperature,36.1,C,36.1,36.1,C,Y,BASELINE,2,2026-01-03,1
STUDY001,VS,STUDY001-SUBJ0020,9,BP,Blood Pressure,107/84,mmHg,107/84,,mmHg,Y,BASELINE,2,2026-01-03,1
STUDY001,VS,STUDY001-SUBJ0020,10,HR,Heart Rate,69,beats/min,69,69.0,beats/min,Y,BASELINE,2,2026-01-03,1
STUDY001,VS,STUDY001-SUBJ0020,11,HEIGHT,Height,195.0,cm,195.0,195.0,cm,,WEEK 1,3,2026-01-09,7
STUDY001,VS,STUDY001-SUBJ0020,12,WEIGHT,Weight,67.3,kg,67.3,67.3,kg,,WEEK 1,3,2026-01-09,7
STUDY001,VS,STUDY001-SUBJ0020,13,TEMP,Temperature,36.3,C,36.3,36.3,C,,WEEK 1,3,2026-01-09,7
STUDY001,VS,STUDY001-SUBJ0020,14,BP,Blood Pressure,101/86,mmHg,101/86,,mmHg,,WEEK 1,3,2026-01-09,7
STUDY001,VS,STUDY001-SUBJ0020,15,HR,Heart Rate,70,beats/min,70,70.0,beats/min,,WEEK 1,3,2026-01-09,7
STUDY001,VS,STUDY001-SUBJ0020,16,HEIGHT,Height,195.0,cm,195.0,195.0,cm,,WEEK 2,4,2026-01-16,14
STUDY001,VS,STUDY001-SUBJ0020,17,WEIGHT,Weight,67.4,kg,67.4,67.4,kg,,WEEK 2,4,2026-01-16,14
STUDY001,VS,STUDY001-SUBJ0020,18,TEMP,Temperature,35.8,C,35.8,35.8,C,,WEEK 2,4,2026-01-16,14
STUDY001,VS,STUDY001-SUBJ0020,19,BP,Blood Pressure,109/82,mmHg,109/82,,mmHg,,WEEK 2,4,2026-01-16,14
STUDY001,VS,STUDY001-SUBJ0020,20,HR,Heart Rate,62,beats/min,62,62.0,beats/min,,WEEK 2,4,2026-01-16,14
STUDY001,VS,STUDY001-SUBJ0020,21,HEIGHT,Height,195.0,cm,195.0,195.0,cm,,WEEK 4,5,2026-01-30,28
STUDY001,VS,STUDY001-SUBJ0020,22,WEIGHT,Weight,65.6,kg,65.6,65.6,kg,,WEEK 4,5,2026-01-30,28
STUDY001,VS,STUDY001-SUBJ0020,23,TEMP,Temperature,35.8,C,35.8,35.8,C,,WEEK 4,5,2026-01-30,28
STUDY001,VS,STUDY001-SUBJ0020,24,BP,Blood Pressure,108/86,mmHg,108/86,,mmHg,,WEEK 4,5,2026-01-30,28
STUDY001,VS,STUDY001-SUBJ0020,25,HR,Heart Rate,70,beats/min,70,70.0,beats/min,,WEEK 4,5,2026-01-30,28
STUDY001,VS,STUDY001-SUBJ0020,26,HEIGHT,Height,194.9,cm,194.9,194.9,cm,,WEEK 8,6,2026-02-27,56
STUDY001,VS,STUDY001-SUBJ0020,27,WEIGHT,Weight,67.0,kg,67.0,67.0,kg,,WEEK 8,6,2026-02-27,56
STUDY001,VS,STUDY001-SUBJ0020,28,TEMP,Temperature,36.2,C,36.2,36.2,C,,WEEK 8,6,2026-02-27,56
STUDY001,VS,STUDY001-SUBJ0020,29,BP,Blood Pressure,102/91,mmHg,102/91,,mmHg,,WEEK 8,6,2026-02-27,56
STUDY001,VS,STUDY001-SUBJ0020,30,HR,Heart Rate,61,beats/min,61,61.0,beats/min,,WEEK 8,6,2026-02-27,56
STUDY001,VS,STUDY001-SUBJ0020,31,HEIGHT,Height,194.9,cm,194.9,194.9,cm,,WEEK 12,7,2026-03-27,84
STUDY001,VS,STUDY001-SUBJ0020,32,WEIGHT,Weight,66.8,kg,66.8,66.8,kg,,WEEK 12,7,2026-03-27,84
STUDY001,VS,STUDY001-SUBJ0020,33,TEMP,Temperature,36.4,C,36.4,36.4,C,,WEEK 12,7,2026-03-27,84
STUDY001,VS,STUDY001-SUBJ0020,34,BP,Blood Pressure,100/82,mmHg,100/82,,mmHg,,WEEK 12,7,2026-03-27,84
STUDY001,VS,STUDY001-SUBJ0020,35,HR,Heart Rate,69,beats/min,69,69.0,beats/min,,WEEK 12,7,2026-03-27,84
STUDY001,VS,STUDY001-SUBJ0020,36,HEIGHT,Height,194.9,cm,194.9,194.9,cm,,WEEK 16,8,2026-04-24,112
STUDY001,VS,STUDY001-SUBJ0020,37,WEIGHT,Weight,67.1,kg,67.1,67.1,kg,,WEEK 16,8,2026-04-24,112
STUDY001,VS,STUDY001-SUBJ0020,38,TEMP,Temperature,35.9,C,35.9,35.9,C,,WEEK 16,8,2026-04-24,112
STUDY001,VS,STUDY001-SUBJ0020,39,BP,Blood Pressure,108/81,mmHg,108/81,,mmHg,,WEEK 16,8,2026-04-24,112
STUDY001,VS,STUDY001-SUBJ0020,40,HR,Heart Rate,64,beats/min,64,64.0,beats/min,,WEEK 16,8,2026-04-24,112
STUDY001,VS,STUDY001-SUBJ0020,41,HEIGHT,Height,195.2,cm,195.2,195.2,cm,,END OF TREATMENT,9,2026-05-22,140
STUDY001,VS,STUDY001-SUBJ0020,42,WEIGHT,Weight,66.4,kg,66.4,66.4,kg,,END OF TREATMENT,9,2026-05-22,140
STUDY001,VS,STUDY001-SUBJ0020,43,TEMP,Temperature,36.2,C,36.2,36.2,C,,END OF TREATMENT,9,2026-05-22,140
STUDY001,VS,STUDY001-SUBJ0020,44,BP,Blood Pressure,104/88,mmHg,104/88,,mmHg,,END OF TREATMENT,9,2026-05-22,140
STUDY001,VS,STUDY001-SUBJ0020,45,HR,Heart Rate,66,beats/min,66,66.0,beats/min,,END OF TREATMENT,9,2026-05-22,140
STUDY001,VS,STUDY001-SUBJ0021,1,HEIGHT,Height,183.8,cm,183.8,183.8,cm,,SCREENING,1,2025-03-30,-14
STUDY001,VS,STUDY001-SUBJ0021,2,WEIGHT,Weight,109.6,kg,109.6,109.6,kg,,SCREENING,1,2025-03-30,-14
STUDY001,VS,STUDY001-SUBJ0021,3,TEMP,Temperature,36.0,C,36.0,36.0,C,,SCREENING,1,2025-03-30,-14
STUDY001,VS,STUDY001-SUBJ0021,4,BP,Blood Pressure,132/92,mmHg,132/92,,mmHg,,SCREENING,1,2025-03-30,-14
STUDY001,VS,STUDY001-SUBJ0021,5,HR,Heart Rate,82,beats/min,82,82.0,beats/min,,SCREENING,1,2025-03-30,-14
STUDY001,VS,STUDY001-SUBJ0021,6,HEIGHT,Height,183.8,cm,183.8,183.8,cm,Y,BASELINE,2,2025-04-13,1
STUDY001,VS,STUDY001-SUBJ0021,7,WEIGHT,Weight,109.9,kg,109.9,109.9,kg,Y,BASELINE,2,2025-04-13,1
STUDY001,VS,STUDY001-SUBJ0021,8,TEMP,Temperature,36.4,C,36.4,36.4,C,Y,BASELINE,2,2025-04-13,1
STUDY001,VS,STUDY001-SUBJ0021,9,BP,Blood Pressure,130/94,mmHg,130/94,,mmHg,Y,BASELINE,2,2025-04-13,1
STUDY001,VS,STUDY001-SUBJ0021,10,HR,Heart Rate,81,beats/min,81,81.0,beats/min,Y,BASELINE,2,2025-04-13,1
STUDY001,VS,STUDY001-SUBJ0021,11,HEIGHT,Height,183.8,cm,183.8,183.8,cm,,WEEK 1,3,2025-04-19,7
STUDY001,VS,STUDY001-SUBJ0021,12,WEIGHT,Weight,110.2,kg,110.2,110.2,kg,,WEEK 1,3,2025-04-19,7
STUDY001,VS,STUDY001-SUBJ0021,13,TEMP,Temperature,35.9,C,35.9,35.9,C,,WEEK 1,3,2025-04-19,7
STUDY001,VS,STUDY001-SUBJ0021,14,BP,Blood Pressure,133/91,mmHg,133/91,,mmHg,,WEEK 1,3,2025-04-19,7
STUDY001,VS,STUDY001-SUBJ0021,15,HR,Heart Rate,86,beats/min,86,86.0,beats/min,,WEEK 1,3,2025-04-19,7
STUDY001,VS,STUDY001-SUBJ0021,16,HEIGHT,Height,183.6,cm,183.6,183.6,cm,,WEEK 2,4,2025-04-26,14
STUDY001,VS,STUDY001-SUBJ0021,17,WEIGHT,Weight,110.1,kg,110.1,110.1,kg,,WEEK 2,4,2025-04-26,14
STUDY001,VS,STUDY001-SUBJ0021,18,TEMP,Temperature,35.9,C,35.9,35.9,C,,WEEK 2,4,2025-04-26,14
STUDY001,VS,STUDY001-SUBJ0021,19,BP,Blood Pressure,132/94,mmHg,132/94,,mmHg,,WEEK 2,4,2025-04-26,14
STUDY001,VS,STUDY001-SUBJ0021,20,HR,Heart Rate,79,beats/min,79,79.0,beats/min,,WEEK 2,4,2025-04-26,14
STUDY001,VS,STUDY001-SUBJ0021,21,HEIGHT,Height,183.8,cm,183.8,183.8,cm,,WEEK 4,5,2025-05-10,28
STUDY001,VS,STUDY001-SUBJ0021,22,WEIGHT,Weight,110.7,kg,110.7,110.7,kg,,WEEK 4,5,2025-05-10,28
STUDY001,VS,STUDY001-SUBJ0021,23,TEMP,Temperature,36.4,C,36.4,36.4,C,,WEEK 4,5,2025-05-10,28
STUDY001,VS,STUDY001-SUBJ0021,24,BP,Blood Pressure,128/99,mmHg,128/99,,mmHg,,WEEK 4,5,2025-05-10,28
STUDY001,VS,STUDY001-SUBJ0021,25,HR,Heart Rate,83,beats/min,83,83.0,beats/min,,WEEK 4,5,2025-05-10,28
STUDY001,VS,STUDY001-SUBJ0021,26,HEIGHT,Height,183.8,cm,183.8,183.8,cm,,WEEK 8,6,2025-06-07,56
STUDY001,VS,STUDY001-SUBJ0021,27,WEIGHT,Weight,109.7,kg,109.7,109.7,kg,,WEEK 8,6,2025-06-07,56
STUDY001,VS,STUDY001-SUBJ0021,28,TEMP,Temperature,36.2,C,36.2,36.2,C,,WEEK 8,6,2025-06-07,56
STUDY001,VS,STUDY001-SUBJ0021,29,BP,Blood Pressure,125/92,mmHg,125/92,,mmHg,,WEEK 8,6,2025-06-07,56
STUDY001,VS,STUDY001-SUBJ0021,30,HR,Heart Rate,83,beats/min,83,83.0,beats/min,,WEEK 8,6,2025-06-07,56
STUDY001,VS,STUDY001-SUBJ0021,31,HEIGHT,Height,183.8,cm,183.8,183.8,cm,,WEEK 12,7,2025-07-05,84
STUDY001,VS,STUDY001-SUBJ0021,32,WEIGHT,Weight,110.2,kg,110.2,110.2,kg,,WEEK 12,7,2025-07-05,84
STUDY001,VS,STUDY001-SUBJ0021,33,TEMP,Temperature,36.4,C,36.4,36.4,C,,WEEK 12,7,2025-07-05,84
STUDY001,VS,STUDY001-SUBJ0021,34,BP,Blood Pressure,125/95,mmHg,125/95,,mmHg,,WEEK 12,7,2025-07-05,84
STUDY001,VS,STUDY001-SUBJ0021,35,HR,Heart Rate,81,beats/min,81,81.0,beats/min,,WEEK 12,7,2025-07-05,84
STUDY001,VS,STUDY001-SUBJ0021,36,HEIGHT,Height,183.8,cm,183.8,183.8,cm,,WEEK 16,8,2025-08-02,112
STUDY001,VS,STUDY001-SUBJ0021,37,WEIGHT,Weight,110.3,kg,110.3,110.3,kg,,WEEK 16,8,2025-08-02,112
STUDY001,VS,STUDY001-SUBJ0021,38,TEMP,Temperature,36.0,C,36.0,36.0,C,,WEEK 16,8,2025-08-02,112
STUDY001,VS,STUDY001-SUBJ0021,39,BP,Blood Pressure,132/99,mmHg,132/99,,mmHg,,WEEK 16,8,2025-08-02,112
STUDY001,VS,STUDY001-SUBJ0021,40,HR,Heart Rate,81,beats/min,81,81.0,beats/min,,WEEK 16,8,2025-08-02,112
STUDY001,VS,STUDY001-SUBJ0021,41,HEIGHT,Height,183.8,cm,183.8,183.8,cm,,END OF TREATMENT,9,2025-08-30,140
STUDY001,VS,STUDY001-SUBJ0021,42,WEIGHT,Weight,110.0,kg,110.0,110.0,kg,,END OF TREATMENT,9,2025-08-30,140
STUDY001,VS,STUDY001-SUBJ0021,43,TEMP,Temperature,36.3,C,36.3,36.3,C,,END OF TREATMENT,9,2025-08-30,140
STUDY001,VS,STUDY001-SUBJ0021,44,BP,Blood Pressure,131/94,mmHg,131/94,,mmHg,,END OF TREATMENT,9,2025-08-30,140
STUDY001,VS,STUDY001-SUBJ0021,45,HR,Heart Rate,79,beats/min,79,79.0,beats/min,,END OF TREATMENT,9,2025-08-30,140
STUDY001,VS,STUDY001-SUBJ0022,1,HEIGHT,Height,198.3,cm,198.3,198.3,cm,,SCREENING,1,2025-10-16,-14
STUDY001,VS,STUDY001-SUBJ0022,2,WEIGHT,Weight,64.4,kg,64.4,64.4,kg,,SCREENING,1,2025-10-16,-14
STUDY001,VS,STUDY001-SUBJ0022,3,TEMP,Temperature,36.7,C,36.7,36.7,C,,SCREENING,1,2025-10-16,-14
STUDY001,VS,STUDY001-SUBJ0022,4,BP,Blood Pressure,127/82,mmHg,127/82,,mmHg,,SCREENING,1,2025-10-16,-14
STUDY001,VS,STUDY001-SUBJ0022,5,HR,Heart Rate,66,beats/min,66,66.0,beats/min,,SCREENING,1,2025-10-16,-14
STUDY001,VS,STUDY001-SUBJ0022,6,HEIGHT,Height,198.5,cm,198.5,198.5,cm,Y,BASELINE,2,2025-10-30,1
STUDY001,VS,STUDY001-SUBJ0022,7,WEIGHT,Weight,64.2,kg,64.2,64.2,kg,Y,BASELINE,2,2025-10-30,1
STUDY001,VS,STUDY001-SUBJ0022,8,TEMP,Temperature,36.6,C,36.6,36.6,C,Y,BASELINE,2,2025-10-30,1
STUDY001,VS,STUDY001-SUBJ0022,9,BP,Blood Pressure,129/83,mmHg,129/83,,mmHg,Y,BASELINE,2,2025-10-30,1
STUDY001,VS,STUDY001-SUBJ0022,10,HR,Heart Rate,68,beats/min,68,68.0,beats/min,Y,BASELINE,2,2025-10-30,1
STUDY001,VS,STUDY001-SUBJ0022,11,HEIGHT,Height,198.5,cm,198.5,198.5,cm,,WEEK 1,3,2025-11-05,7
STUDY001,VS,STUDY001-SUBJ0022,12,WEIGHT,Weight,64.3,kg,64.3,64.3,kg,,WEEK 1,3,2025-11-05,7
STUDY001,VS,STUDY001-SUBJ0022,13,TEMP,Temperature,36.5,C,36.5,36.5,C,,WEEK 1,3,2025-11-05,7
STUDY001,VS,STUDY001-SUBJ0022,14,BP,Blood Pressure,128/82,mmHg,128/82,,mmHg,,WEEK 1,3,2025-11-05,7
STUDY001,VS,STUDY001-SUBJ0022,15,HR,Heart Rate,63,beats/min,63,63.0,beats/min,,WEEK 1,3,2025-11-05,7
STUDY001,VS,STUDY001-SUBJ0022,16,HEIGHT,Height,198.3,cm,198.3,198.3,cm,,WEEK 2,4,2025-11-12,14
STUDY001,VS,STUDY001-SUBJ0022,17,WEIGHT,Weight,64.9,kg,64.9,64.9,kg,,WEEK 2,4,2025-11-12,14
STUDY001,VS,STUDY001-SUBJ0022,18,TEMP,Temperature,36.8,C,36.8,36.8,C,,WEEK 2,4,2025-11-12,14
STUDY001,VS,STUDY001-SUBJ0022,19,BP,Blood Pressure,127/88,mmHg,127/88,,mmHg,,WEEK 2,4,2025-11-12,14
STUDY001,VS,STUDY001-SUBJ0022,20,HR,Heart Rate,66,beats/min,66,66.0,beats/min,,WEEK 2,4,2025-11-12,14
STUDY001,VS,STUDY001-SUBJ0022,21,HEIGHT,Height,198.4,cm,198.4,198.4,cm,,WEEK 4,5,2025-11-26,28
STUDY001,VS,STUDY001-SUBJ0022,22,WEIGHT,Weight,64.1,kg,64.1,64.1,kg,,WEEK 4,5,2025-11-26,28
STUDY001,VS,STUDY001-SUBJ0022,23,TEMP,Temperature,36.5,C,36.5,36.5,C,,WEEK 4,5,2025-11-26,28
STUDY001,VS,STUDY001-SUBJ0022,24,BP,Blood Pressure,131/80,mmHg,131/80,,mmHg,,WEEK 4,5,2025-11-26,28
STUDY001,VS,STUDY001-SUBJ0022,25,HR,Heart Rate,60,beats/min,60,60.0,beats/min,,WEEK 4,5,2025-11-26,28
STUDY001,VS,STUDY001-SUBJ0022,26,HEIGHT,Height,198.2,cm,198.2,198.2,cm,,WEEK 8,6,2025-12-24,56
STUDY001,VS,STUDY001-SUBJ0022,27,WEIGHT,Weight,65.3,kg,65.3,65.3,kg,,WEEK 8,6,2025-12-24,56
STUDY001,VS,STUDY001-SUBJ0022,28,TEMP,Temperature,36.3,C,36.3,36.3,C,,WEEK 8,6,2025-12-24,56
STUDY001,VS,STUDY001-SUBJ0022,29,BP,Blood Pressure,132/89,mmHg,132/89,,mmHg,,WEEK 8,6,2025-12-24,56
STUDY001,VS,STUDY001-SUBJ0022,30,HR,Heart Rate,62,beats/min,62,62.0,beats/min,,WEEK 8,6,2025-12-24,56
STUDY001,VS,STUDY001-SUBJ0022,31,HEIGHT,Height,198.3,cm,198.3,198.3,cm,,WEEK 12,7,2026-01-21,84
STUDY001,VS,STUDY001-SUBJ0022,32,WEIGHT,Weight,65.5,kg,65.5,65.5,kg,,WEEK 12,7,2026-01-21,84
STUDY001,VS,STUDY001-SUBJ0022,33,TEMP,Temperature,36.7,C,36.7,36.7,C,,WEEK 12,7,2026-01-21,84
STUDY001,VS,STUDY001-SUBJ0022,34,BP,Blood Pressure,132/81,mmHg,132/81,,mmHg,,WEEK 12,7,2026-01-21,84
STUDY001,VS,STUDY001-SUBJ0022,35,HR,Heart Rate,65,beats/min,65,65.0,beats/min,,WEEK 12,7,2026-01-21,84
STUDY001,VS,STUDY001-SUBJ0022,36,HEIGHT,Height,198.5,cm,198.5,198.5,cm,,WEEK 16,8,2026-02-18,112
STUDY001,VS,STUDY001-SUBJ0022,37,WEIGHT,Weight,64.4,kg,64.4,64.4,kg,,WEEK 16,8,2026-02-18,112
STUDY001,VS,STUDY001-SUBJ0022,38,TEMP,Temperature,36.3,C,36.3,36.3,C,,WEEK 16,8,2026-02-18,112
STUDY001,VS,STUDY001-SUBJ0022,39,BP,Blood Pressure,130/83,mmHg,130/83,,mmHg,,WEEK 16,8,2026-02-18,112
STUDY001,VS,STUDY001-SUBJ0022,40,HR,Heart Rate,59,beats/min,59,59.0,beats/min,,WEEK 16,8,2026-02-18,112
STUDY001,VS,STUDY001-SUBJ0022,41,HEIGHT,Height,198.2,cm,198.2,198.2,cm,,END OF TREATMENT,9,2026-03-18,140
STUDY001,VS,STUDY001-SUBJ0022,42,WEIGHT,Weight,64.9,kg,64.9,64.9,kg,,END OF TREATMENT,9,2026-03-18,140
STUDY001,VS,STUDY001-SUBJ0022,43,TEMP,Temperature,36.3,C,36.3,36.3,C,,END OF TREATMENT,9,2026-03-18,140
STUDY001,VS,STUDY001-SUBJ0022,44,BP,Blood Pressure,127/86,mmHg,127/86,,mmHg,,END OF TREATMENT,9,2026-03-18,140
STUDY001,VS,STUDY001-SUBJ0022,45,HR,Heart Rate,62,beats/min,62,62.0,beats/min,,END OF TREATMENT,9,2026-03-18,140
STUDY001,VS,STUDY001-SUBJ0023,1,HEIGHT,Height,155.3,cm,155.3,155.3,cm,,SCREENING,1,2025-08-02,-14
STUDY001,VS,STUDY001-SUBJ0023,2,WEIGHT,Weight,49.3,kg,49.3,49.3,kg,,SCREENING,1,2025-08-02,-14
STUDY001,VS,STUDY001-SUBJ0023,3,TEMP,Temperature,36.2,C,36.2,36.2,C,,SCREENING,1,2025-08-02,-14
STUDY001,VS,STUDY001-SUBJ0023,4,BP,Blood Pressure,138/94,mmHg,138/94,,mmHg,,SCREENING,1,2025-08-02,-14
STUDY001,VS,STUDY001-SUBJ0023,5,HR,Heart Rate,88,beats/min,88,88.0,beats/min,,SCREENING,1,2025-08-02,-14
STUDY001,VS,STUDY001-SUBJ0023,6,HEIGHT,Height,155.5,cm,155.5,155.5,cm,Y,BASELINE,2,2025-08-16,1
STUDY001,VS,STUDY001-SUBJ0023,7,WEIGHT,Weight,49.6,kg,49.6,49.6,kg,Y,BASELINE,2,2025-08-16,1
STUDY001,VS,STUDY001-SUBJ0023,8,TEMP,Temperature,36.0,C,36.0,36.0,C,Y,BASELINE,2,2025-08-16,1
STUDY001,VS,STUDY001-SUBJ0023,9,BP,Blood Pressure,135/92,mmHg,135/92,,mmHg,Y,BASELINE,2,2025-08-16,1
STUDY001,VS,STUDY001-SUBJ0023,10,HR,Heart Rate,90,beats/min,90,90.0,beats/min,Y,BASELINE,2,2025-08-16,1
STUDY001,VS,STUDY001-SUBJ0023,11,HEIGHT,Height,155.2,cm,155.2,155.2,cm,,WEEK 1,3,2025-08-22,7
STUDY001,VS,STUDY001-SUBJ0023,12,WEIGHT,Weight,50.8,kg,50.8,50.8,kg,,WEEK 1,3,2025-08-22,7
STUDY001,VS,STUDY001-SUBJ0023,13,TEMP,Temperature,36.2,C,36.2,36.2,C,,WEEK 1,3,2025-08-22,7
STUDY001,VS,STUDY001-SUBJ0023,14,BP,Blood Pressure,133/96,mmHg,133/96,,mmHg,,WEEK 1,3,2025-08-22,7
STUDY001,VS,STUDY001-SUBJ0023,15,HR,Heart Rate,85,beats/min,85,85.0,beats/min,,WEEK 1,3,2025-08-22,7
STUDY001,VS,STUDY001-SUBJ0023,16,HEIGHT,Height,155.4,cm,155.4,155.4,cm,,WEEK 2,4,2025-08-29,14
STUDY001,VS,STUDY001-SUBJ0023,17,WEIGHT,Weight,49.6,kg,49.6,49.6,kg,,WEEK 2,4,2025-08-29,14
STUDY001,VS,STUDY001-SUBJ0023,18,TEMP,Temperature,36.1,C,36.1,36.1,C,,WEEK 2,4,2025-08-29,14
STUDY001,VS,STUDY001-SUBJ0023,19,BP,Blood Pressure,136/90,mmHg,136/90,,mmHg,,WEEK 2,4,2025-08-29,14
STUDY001,VS,STUDY001-SUBJ0023,20,HR,Heart Rate,84,beats/min,84,84.0,beats/min,,WEEK 2,4,2025-08-29,14
STUDY001,VS,STUDY001-SUBJ0023,21,HEIGHT,Height,155.2,cm,155.2,155.2,cm,,WEEK 4,5,2025-09-12,28
STUDY001,VS,STUDY001-SUBJ0023,22,WEIGHT,Weight,49.8,kg,49.8,49.8,kg,,WEEK 4,5,2025-09-12,28
STUDY001,VS,STUDY001-SUBJ0023,23,TEMP,Temperature,36.0,C,36.0,36.0,C,,WEEK 4,5,2025-09-12,28
STUDY001,VS,STUDY001-SUBJ0023,24,BP,Blood Pressure,135/91,mmHg,135/91,,mmHg,,WEEK 4,5,2025-09-12,28
STUDY001,VS,STUDY001-SUBJ0023,25,HR,Heart Rate,90,beats/min,90,90.0,beats/min,,WEEK 4,5,2025-09-12,28
STUDY001,VS,STUDY001-SUBJ0023,26,HEIGHT,Height,155.2,cm,155.2,155.2,cm,,WEEK 8,6,2025-10-10,56
STUDY001,VS,STUDY001-SUBJ0023,27,WEIGHT,Weight,50.9,kg,50.9,50.9,kg,,WEEK 8,6,2025-10-10,56
STUDY001,VS,STUDY001-SUBJ0023,28,TEMP,Temperature,36.2,C,36.2,36.2,C,,WEEK 8,6,2025-10-10,56
STUDY001,VS,STUDY001-SUBJ0023,29,BP,Blood Pressure,141/99,mmHg,141/99,,mmHg,,WEEK 8,6,2025-10-10,56
STUDY001,VS,STUDY001-SUBJ0023,30,HR,Heart Rate,84,beats/min,84,84.0,beats/min,,WEEK 8,6,2025-10-10,56
STUDY001,VS,STUDY001-SUBJ0023,31,HEIGHT,Height,155.4,cm,155.4,155.4,cm,,WEEK 12,7,2025-11-07,84
STUDY001,VS,STUDY001-SUBJ0023,32,WEIGHT,Weight,49.9,kg,49.9,49.9,kg,,WEEK 12,7,2025-11-07,84
STUDY001,VS,STUDY001-SUBJ0023,33,TEMP,Temperature,36.5,C,36.5,36.5,C,,WEEK 12,7,2025-11-07,84
STUDY001,VS,STUDY001-SUBJ0023,34,BP,Blood Pressure,132/93,mmHg,132/93,,mmHg,,WEEK 12,7,2025-11-07,84
STUDY001,VS,STUDY001-SUBJ0023,35,HR,Heart Rate,88,beats/min,88,88.0,beats/min,,WEEK 12,7,2025-11-07,84
STUDY001,VS,STUDY001-SUBJ0023,36,HEIGHT,Height,155.1,cm,155.1,155.1,cm,,WEEK 16,8,2025-12-05,112
STUDY001,VS,STUDY001-SUBJ0023,37,WEIGHT,Weight,50.8,kg,50.8,50.8,kg,,WEEK 16,8,2025-12-05,112
STUDY001,VS,STUDY001-SUBJ0023,38,TEMP,Temperature,36.3,C,36.3,36.3,C,,WEEK 16,8,2025-12-05,112
STUDY001,VS,STUDY001-SUBJ0023,39,BP,Blood Pressure,134/91,mmHg,134/91,,mmHg,,WEEK 16,8,2025-12-05,112
STUDY001,VS,STUDY001-SUBJ0023,40,HR,Heart Rate,85,beats/min,85,85.0,beats/min,,WEEK 16,8,2025-12-05,112
STUDY001,VS,STUDY001-SUBJ0023,41,HEIGHT,Height,155.3,cm,155.3,155.3,cm,,END OF TREATMENT,9,2026-01-02,140
STUDY001,VS,STUDY001-SUBJ0023,42,WEIGHT,Weight,49.5,kg,49.5,49.5,kg,,END OF TREATMENT,9,2026-01-02,140
STUDY001,VS,STUDY001-SUBJ0023,43,TEMP,Temperature,36.2,C,36.2,36.2,C,,END OF TREATMENT,9,2026-01-02,140
STUDY001,VS,STUDY001-SUBJ0023,44,BP,Blood Pressure,133/97,mmHg,133/97,,mmHg,,END OF TREATMENT,9,2026-01-02,140
STUDY001,VS,STUDY001-SUBJ0023,45,HR,Heart Rate,86,beats/min,86,86.0,beats/min,,END OF TREATMENT,9,2026-01-02,140
STUDY001,VS,STUDY001-SUBJ0024,1,HEIGHT,Height,156.5,cm,156.5,156.5,cm,,SCREENING,1,2025-03-28,-14
STUDY001,VS,STUDY001-SUBJ0024,2,WEIGHT,Weight,108.0,kg,108.0,108.0,kg,,SCREENING,1,2025-03-28,-14
STUDY001,VS,STUDY001-SUBJ0024,3,TEMP,Temperature,36.1,C,36.1,36.1,C,,SCREENING,1,2025-03-28,-14
STUDY001,VS,STUDY001-SUBJ0024,4,BP,Blood Pressure,133/89,mmHg,133/89,,mmHg,,SCREENING,1,2025-03-28,-14
STUDY001,VS,STUDY001-SUBJ0024,5,HR,Heart Rate,66,beats/min,66,66.0,beats/min,,SCREENING,1,2025-03-28,-14
STUDY001,VS,STUDY001-SUBJ0024,6,HEIGHT,Height,156.6,cm,156.6,156.6,cm,Y,BASELINE,2,2025-04-11,1
STUDY001,VS,STUDY001-SUBJ0024,7,WEIGHT,Weight,108.6,kg,108.6,108.6,kg,Y,BASELINE,2,2025-04-11,1
STUDY001,VS,STUDY001-SUBJ0024,8,TEMP,Temperature,36.2,C,36.2,36.2,C,Y,BASELINE,2,2025-04-11,1
STUDY001,VS,STUDY001-SUBJ0024,9,BP,Blood Pressure,132/93,mmHg,132/93,,mmHg,Y,BASELINE,2,2025-04-11,1
STUDY001,VS,STUDY001-SUBJ0024,10,HR,Heart Rate,62,beats/min,62,62.0,beats/min,Y,BASELINE,2,2025-04-11,1
STUDY001,VS,STUDY001-SUBJ0024,11,HEIGHT,Height,156.6,cm,156.6,156.6,cm,,WEEK 1,3,2025-04-17,7
STUDY001,VS,STUDY001-SUBJ0024,12,WEIGHT,Weight,107.5,kg,107.5,107.5,kg,,WEEK 1,3,2025-04-17,7
STUDY001,VS,STUDY001-SUBJ0024,13,TEMP,Temperature,36.6,C,36.6,36.6,C,,WEEK 1,3,2025-04-17,7
STUDY001,VS,STUDY001-SUBJ0024,14,BP,Blood Pressure,136/93,mmHg,136/93,,mmHg,,WEEK 1,3,2025-04-17,7
STUDY001,VS,STUDY001-SUBJ0024,15,HR,Heart Rate,62,beats/min,62,62.0,beats/min,,WEEK 1,3,2025-04-17,7
STUDY001,VS,STUDY001-SUBJ0024,16,HEIGHT,Height,156.3,cm,156.3,156.3,cm,,WEEK 2,4,2025-04-24,14
STUDY001,VS,STUDY001-SUBJ0024,17,WEIGHT,Weight,108.6,kg,108.6,108.6,kg,,WEEK 2,4,2025-04-24,14
STUDY001,VS,STUDY001-SUBJ0024,18,TEMP,Temperature,36.2,C,36.2,36.2,C,,WEEK 2,4,2025-04-24,14
STUDY001,VS,STUDY001-SUBJ0024,19,BP,Blood Pressure,134/88,mmHg,134/88,,mmHg,,WEEK 2,4,2025-04-24,14
STUDY001,VS,STUDY001-SUBJ0024,20,HR,Heart Rate,64,beats/min,64,64.0,beats/min,,WEEK 2,4,2025-04-24,14
STUDY001,VS,STUDY001-SUBJ0024,21,HEIGHT,Height,156.5,cm,156.5,156.5,cm,,WEEK 4,5,2025-05-08,28
STUDY001,VS,STUDY001-SUBJ0024,22,WEIGHT,Weight,109.0,kg,109.0,109.0,kg,,WEEK 4,5,2025-05-08,28
STUDY001,VS,STUDY001-SUBJ0024,23,TEMP,Temperature,36.3,C,36.3,36.3,C,,WEEK 4,5,2025-05-08,28
STUDY001,VS,STUDY001-SUBJ0024,24,BP,Blood Pressure,129/88,mmHg,129/88,,mmHg,,WEEK 4,5,2025-05-08,28
STUDY001,VS,STUDY001-SUBJ0024,25,HR,Heart Rate,66,beats/min,66,66.0,beats/min,,WEEK 4,5,2025-05-08,28
STUDY001,VS,STUDY001-SUBJ0024,26,HEIGHT,Height,156.5,cm,156.5,156.5,cm,,WEEK 8,6,2025-06-05,56
STUDY001,VS,STUDY001-SUBJ0024,27,WEIGHT,Weight,109.1,kg,109.1,109.1,kg,,WEEK 8,6,2025-06-05,56
STUDY001,VS,STUDY001-SUBJ0024,28,TEMP,Temperature,36.4,C,36.4,36.4,C,,WEEK 8,6,2025-06-05,56
STUDY001,VS,STUDY001-SUBJ0024,29,BP,Blood Pressure,129/90,mmHg,129/90,,mmHg,,WEEK 8,6,2025-06-05,56
STUDY001,VS,STUDY001-SUBJ0024,30,HR,Heart Rate,62,beats/min,62,62.0,beats/min,,WEEK 8,6,2025-06-05,56
STUDY001,VS,STUDY001-SUBJ0024,31,HEIGHT,Height,156.4,cm,156.4,156.4,cm,,WEEK 12,7,2025-07-03,84
STUDY001,VS,STUDY001-SUBJ0024,32,WEIGHT,Weight,108.3,kg,108.3,108.3,kg,,WEEK 12,7,2025-07-03,84
STUDY001,VS,STUDY001-SUBJ0024,33,TEMP,Temperature,36.3,C,36.3,36.3,C,,WEEK 12,7,2025-07-03,84
STUDY001,VS,STUDY001-SUBJ0024,34,BP,Blood Pressure,127/88,mmHg,127/88,,mmHg,,WEEK 12,7,2025-07-03,84
STUDY001,VS,STUDY001-SUBJ0024,35,HR,Heart Rate,62,beats/min,62,62.0,beats/min,,WEEK 12,7,2025-07-03,84
STUDY001,VS,STUDY001-SUBJ0024,36,HEIGHT,Height,156.7,cm,156.7,156.7,cm,,WEEK 16,8,2025-07-31,112
STUDY001,VS,STUDY001-SUBJ0024,37,WEIGHT,Weight,107.6,kg,107.6,107.6,kg,,WEEK 16,8,2025-07-31,112
STUDY001,VS,STUDY001-SUBJ0024,38,TEMP,Temperature,36.6,C,36.6,36.6,C,,WEEK 16,8,2025-07-31,112
STUDY001,VS,STUDY001-SUBJ0024,39,BP,Blood Pressure,132/94,mmHg,132/94,,mmHg,,WEEK 16,8,2025-07-31,112
STUDY001,VS,STUDY001-SUBJ0024,40,HR,Heart Rate,61,beats/min,61,61.0,beats/min,,WEEK 16,8,2025-07-31,112
STUDY001,VS,STUDY001-SUBJ0024,41,HEIGHT,Height,156.5,cm,156.5,156.5,cm,,END OF TREATMENT,9,2025-08-28,140
STUDY001,VS,STUDY001-SUBJ0024,42,WEIGHT,Weight,109.0,kg,109.0,109.0,kg,,END OF TREATMENT,9,2025-08-28,140
STUDY001,VS,STUDY001-SUBJ0024,43,TEMP,Temperature,36.1,C,36.1,36.1,C,,END OF TREATMENT,9,2025-08-28,140
STUDY001,VS,STUDY001-SUBJ0024,44,BP,Blood Pressure,128/96,mmHg,128/96,,mmHg,,END OF TREATMENT,9,2025-08-28,140
STUDY001,VS,STUDY001-SUBJ0024,45,HR,Heart Rate,63,beats/min,63,63.0,beats/min,,END OF TREATMENT,9,2025-08-28,140
STUDY001,VS,STUDY001-SUBJ0025,1,HEIGHT,Height,170.7,cm,170.7,170.7,cm,,SCREENING,1,2025-09-13,-14
STUDY001,VS,STUDY001-SUBJ0025,2,WEIGHT,Weight,108.5,kg,108.5,108.5,kg,,SCREENING,1,2025-09-13,-14
STUDY001,VS,STUDY001-SUBJ0025,3,TEMP,Temperature,36.5,C,36.5,36.5,C,,SCREENING,1,2025-09-13,-14
STUDY001,VS,STUDY001-SUBJ0025,4,BP,Blood Pressure,109/83,mmHg,109/83,,mmHg,,SCREENING,1,2025-09-13,-14
STUDY001,VS,STUDY001-SUBJ0025,5,HR,Heart Rate,78,beats/min,78,78.0,beats/min,,SCREENING,1,2025-09-13,-14
STUDY001,VS,STUDY001-SUBJ0025,6,HEIGHT,Height,170.7,cm,170.7,170.7,cm,Y,BASELINE,2,2025-09-27,1
STUDY001,VS,STUDY001-SUBJ0025,7,WEIGHT,Weight,109.3,kg,109.3,109.3,kg,Y,BASELINE,2,2025-09-27,1
STUDY001,VS,STUDY001-SUBJ0025,8,TEMP,Temperature,36.6,C,36.6,36.6,C,Y,BASELINE,2,2025-09-27,1
STUDY001,VS,STUDY001-SUBJ0025,9,BP,Blood Pressure,113/75,mmHg,113/75,,mmHg,Y,BASELINE,2,2025-09-27,1
STUDY001,VS,STUDY001-SUBJ0025,10,HR,Heart Rate,74,beats/min,74,74.0,beats/min,Y,BASELINE,2,2025-09-27,1
STUDY001,VS,STUDY001-SUBJ0025,11,HEIGHT,Height,170.9,cm,170.9,170.9,cm,,WEEK 1,3,2025-10-03,7
STUDY001,VS,STUDY001-SUBJ0025,12,WEIGHT,Weight,109.5,kg,109.5,109.5,kg,,WEEK 1,3,2025-10-03,7
STUDY001,VS,STUDY001-SUBJ0025,13,TEMP,Temperature,36.3,C,36.3,36.3,C,,WEEK 1,3,2025-10-03,7
STUDY001,VS,STUDY001-SUBJ0025,14,BP,Blood Pressure,116/81,mmHg,116/81,,mmHg,,WEEK 1,3,2025-10-03,7
STUDY001,VS,STUDY001-SUBJ0025,15,HR,Heart Rate,71,beats/min,71,71.0,beats/min,,WEEK 1,3,2025-10-03,7
STUDY001,VS,STUDY001-SUBJ0025,16,HEIGHT,Height,170.5,cm,170.5,170.5,cm,,WEEK 2,4,2025-10-10,14
STUDY001,VS,STUDY001-SUBJ0025,17,WEIGHT,Weight,109.6,kg,109.6,109.6,kg,,WEEK 2,4,2025-10-10,14
STUDY001,VS,STUDY001-SUBJ0025,18,TEMP,Temperature,36.0,C,36.0,36.0,C,,WEEK 2,4,2025-10-10,14
STUDY001,VS,STUDY001-SUBJ0025,19,BP,Blood Pressure,111/81,mmHg,111/81,,mmHg,,WEEK 2,4,2025-10-10,14
STUDY001,VS,STUDY001-SUBJ0025,20,HR,Heart Rate,70,beats/min,70,70.0,beats/min,,WEEK 2,4,2025-10-10,14
STUDY001,VS,STUDY001-SUBJ0025,21,HEIGHT,Height,170.7,cm,170.7,170.7,cm,,WEEK 4,5,2025-10-24,28
STUDY001,VS,STUDY001-SUBJ0025,22,WEIGHT,Weight,108.8,kg,108.8,108.8,kg,,WEEK 4,5,2025-10-24,28
STUDY001,VS,STUDY001-SUBJ0025,23,TEMP,Temperature,36.0,C,36.0,36.0,C,,WEEK 4,5,2025-10-24,28
STUDY001,VS,STUDY001-SUBJ0025,24,BP,Blood Pressure,113/79,mmHg,113/79,,mmHg,,WEEK 4,5,2025-10-24,28
STUDY001,VS,STUDY001-SUBJ0025,25,HR,Heart Rate,73,beats/min,73,73.0,beats/min,,WEEK 4,5,2025-10-24,28
STUDY001,VS,STUDY001-SUBJ0025,26,HEIGHT,Height,170.7,cm,170.7,170.7,cm,,WEEK 8,6,2025-11-21,56
STUDY001,VS,STUDY001-SUBJ0025,27,WEIGHT,Weight,109.6,kg,109.6,109.6,kg,,WEEK 8,6,2025-11-21,56
STUDY001,VS,STUDY001-SUBJ0025,28,TEMP,Temperature,36.6,C,36.6,36.6,C,,WEEK 8,6,2025-11-21,56
STUDY001,VS,STUDY001-SUBJ0025,29,BP,Blood Pressure,110/84,mmHg,110/84,,mmHg,,WEEK 8,6,2025-11-21,56
STUDY001,VS,STUDY001-SUBJ0025,30,HR,Heart Rate,70,beats/min,70,70.0,beats/min,,WEEK 8,6,2025-11-21,56
STUDY001,VS,STUDY001-SUBJ0025,31,HEIGHT,Height,170.5,cm,170.5,170.5,cm,,WEEK 12,7,2025-12-19,84
STUDY001,VS,STUDY001-SUBJ0025,32,WEIGHT,Weight,108.8,kg,108.8,108.8,kg,,WEEK 12,7,2025-12-19,84
STUDY001,VS,STUDY001-SUBJ0025,33,TEMP,Temperature,36.4,C,36.4,36.4,C,,WEEK 12,7,2025-12-19,84
STUDY001,VS,STUDY001-SUBJ0025,34,BP,Blood Pressure,107/76,mmHg,107/76,,mmHg,,WEEK 12,7,2025-12-19,84
STUDY001,VS,STUDY001-SUBJ0025,35,HR,Heart Rate,75,beats/min,75,75.0,beats/min,,WEEK 12,7,2025-12-19,84
STUDY001,VS,STUDY001-SUBJ0025,36,HEIGHT,Height,170.6,cm,170.6,170.6,cm,,WEEK 16,8,2026-01-16,112
STUDY001,VS,STUDY001-SUBJ0025,37,WEIGHT,Weight,109.9,kg,109.9,109.9,kg,,WEEK 16,8,2026-01-16,112
STUDY001,VS,STUDY001-SUBJ0025,38,TEMP,Temperature,36.6,C,36.6,36.6,C,,WEEK 16,8,2026-01-16,112
STUDY001,VS,STUDY001-SUBJ0025,39,BP,Blood Pressure,112/82,mmHg,112/82,,mmHg,,WEEK 16,8,2026-01-16,112
STUDY001,VS,STUDY001-SUBJ0025,40,HR,Heart Rate,72,beats/min,72,72.0,beats/min,,WEEK 16,8,2026-01-16,112
STUDY001,VS,STUDY001-SUBJ0025,41,HEIGHT,Height,170.6,cm,170.6,170.6,cm,,END OF TREATMENT,9,2026-02-13,140
STUDY001,VS,STUDY001-SUBJ0025,42,WEIGHT,Weight,109.4,kg,109.4,109.4,kg,,END OF TREATMENT,9,2026-02-13,140
STUDY001,VS,STUDY001-SUBJ0025,43,TEMP,Temperature,36.3,C,36.3,36.3,C,,END OF TREATMENT,9,2026-02-13,140
STUDY001,VS,STUDY001-SUBJ0025,44,BP,Blood Pressure,108/76,mmHg,108/76,,mmHg,,END OF TREATMENT,9,2026-02-13,140
STUDY001,VS,STUDY001-SUBJ0025,45,HR,Heart Rate,74,beats/min,74,74.0,beats/min,,END OF TREATMENT,9,2026-02-13,140
STUDY001,VS,STUDY001-SUBJ0026,1,HEIGHT,Height,192.5,cm,192.5,192.5,cm,,SCREENING,1,2025-10-05,-14
STUDY001,VS,STUDY001-SUBJ0026,2,WEIGHT,Weight,116.1,kg,116.1,116.1,kg,,SCREENING,1,2025-10-05,-14
STUDY001,VS,STUDY001-SUBJ0026,3,TEMP,Temperature,36.6,C,36.6,36.6,C,,SCREENING,1,2025-10-05,-14
STUDY001,VS,STUDY001-SUBJ0026,4,BP,Blood Pressure,96/85,mmHg,96/85,,mmHg,,SCREENING,1,2025-10-05,-14
STUDY001,VS,STUDY001-SUBJ0026,5,HR,Heart Rate,72,beats/min,72,72.0,beats/min,,SCREENING,1,2025-10-05,-14
STUDY001,VS,STUDY001-SUBJ0026,6,HEIGHT,Height,192.5,cm,192.5,192.5,cm,Y,BASELINE,2,2025-10-19,1
STUDY001,VS,STUDY001-SUBJ0026,7,WEIGHT,Weight,116.2,kg,116.2,116.2,kg,Y,BASELINE,2,2025-10-19,1
STUDY001,VS,STUDY001-SUBJ0026,8,TEMP,Temperature,36.5,C,36.5,36.5,C,Y,BASELINE,2,2025-10-19,1
STUDY001,VS,STUDY001-SUBJ0026,9,BP,Blood Pressure,96/79,mmHg,96/79,,mmHg,Y,BASELINE,2,2025-10-19,1
STUDY001,VS,STUDY001-SUBJ0026,10,HR,Heart Rate,74,beats/min,74,74.0,beats/min,Y,BASELINE,2,2025-10-19,1
STUDY001,VS,STUDY001-SUBJ0026,11,HEIGHT,Height,192.7,cm,192.7,192.7,cm,,WEEK 1,3,2025-10-25,7
STUDY001,VS,STUDY001-SUBJ0026,12,WEIGHT,Weight,115.3,kg,115.3,115.3,kg,,WEEK 1,3,2025-10-25,7
STUDY001,VS,STUDY001-SUBJ0026,13,TEMP,Temperature,36.7,C,36.7,36.7,C,,WEEK 1,3,2025-10-25,7
STUDY001,VS,STUDY001-SUBJ0026,14,BP,Blood Pressure,96/85,mmHg,96/85,,mmHg,,WEEK 1,3,2025-10-25,7
STUDY001,VS,STUDY001-SUBJ0026,15,HR,Heart Rate,76,beats/min,76,76.0,beats/min,,WEEK 1,3,2025-10-25,7
STUDY001,VS,STUDY001-SUBJ0026,16,HEIGHT,Height,192.5,cm,192.5,192.5,cm,,WEEK 2,4,2025-11-01,14
STUDY001,VS,STUDY001-SUBJ0026,17,WEIGHT,Weight,116.2,kg,116.2,116.2,kg,,WEEK 2,4,2025-11-01,14
STUDY001,VS,STUDY001-SUBJ0026,18,TEMP,Temperature,36.7,C,36.7,36.7,C,,WEEK 2,4,2025-11-01,14
STUDY001,VS,STUDY001-SUBJ0026,19,BP,Blood Pressure,95/83,mmHg,95/83,,mmHg,,WEEK 2,4,2025-11-01,14
STUDY001,VS,STUDY001-SUBJ0026,20,HR,Heart Rate,75,beats/min,75,75.0,beats/min,,WEEK 2,4,2025-11-01,14
STUDY001,VS,STUDY001-SUBJ0026,21,HEIGHT,Height,192.4,cm,192.4,192.4,cm,,WEEK 4,5,2025-11-15,28
STUDY001,VS,STUDY001-SUBJ0026,22,WEIGHT,Weight,116.0,kg,116.0,116.0,kg,,WEEK 4,5,2025-11-15,28
STUDY001,VS,STUDY001-SUBJ0026,23,TEMP,Temperature,36.5,C,36.5,36.5,C,,WEEK 4,5,2025-11-15,28
STUDY001,VS,STUDY001-SUBJ0026,24,BP,Blood Pressure,103/82,mmHg,103/82,,mmHg,,WEEK 4,5,2025-11-15,28
STUDY001,VS,STUDY001-SUBJ0026,25,HR,Heart Rate,69,beats/min,69,69.0,beats/min,,WEEK 4,5,2025-11-15,28
STUDY001,VS,STUDY001-SUBJ0026,26,HEIGHT,Height,192.7,cm,192.7,192.7,cm,,WEEK 8,6,2025-12-13,56
STUDY001,VS,STUDY001-SUBJ0026,27,WEIGHT,Weight,115.6,kg,115.6,115.6,kg,,WEEK 8,6,2025-12-13,56
STUDY001,VS,STUDY001-SUBJ0026,28,TEMP,Temperature,36.8,C,36.8,36.8,C,,WEEK 8,6,2025-12-13,56
STUDY001,VS,STUDY001-SUBJ0026,29,BP,Blood Pressure,100/82,mmHg,100/82,,mmHg,,WEEK 8,6,2025-12-13,56
STUDY001,VS,STUDY001-SUBJ0026,30,HR,Heart Rate,75,beats/min,75,75.0,beats/min,,WEEK 8,6,2025-12-13,56
STUDY001,VS,STUDY001-SUBJ0026,31,HEIGHT,Height,192.6,cm,192.6,192.6,cm,,WEEK 12,7,2026-01-10,84
STUDY001,VS,STUDY001-SUBJ0026,32,WEIGHT,Weight,115.1,kg,115.1,115.1,kg,,WEEK 12,7,2026-01-10,84
STUDY001,VS,STUDY001-SUBJ0026,33,TEMP,Temperature,36.6,C,36.6,36.6,C,,WEEK 12,7,2026-01-10,84
STUDY001,VS,STUDY001-SUBJ0026,34,BP,Blood Pressure,97/76,mmHg,97/76,,mmHg,,WEEK 12,7,2026-01-10,84
STUDY001,VS,STUDY001-SUBJ0026,35,HR,Heart Rate,75,beats/min,75,75.0,beats/min,,WEEK 12,7,2026-01-10,84
STUDY001,VS,STUDY001-SUBJ0026,36,HEIGHT,Height,192.3,cm,192.3,192.3,cm,,WEEK 16,8,2026-02-07,112
STUDY001,VS,STUDY001-SUBJ0026,37,WEIGHT,Weight,116.3,kg,116.3,116.3,kg,,WEEK 16,8,2026-02-07,112
STUDY001,VS,STUDY001-SUBJ0026,38,TEMP,Temperature,36.3,C,36.3,36.3,C,,WEEK 16,8,2026-02-07,112
STUDY001,VS,STUDY001-SUBJ0026,39,BP,Blood Pressure,99/79,mmHg,99/79,,mmHg,,WEEK 16,8,2026-02-07,112
STUDY001,VS,STUDY001-SUBJ0026,40,HR,Heart Rate,69,beats/min,69,69.0,beats/min,,WEEK 16,8,2026-02-07,112
STUDY001,VS,STUDY001-SUBJ0026,41,HEIGHT,Height,192.5,cm,192.5,192.5,cm,,END OF TREATMENT,9,2026-03-07,140
STUDY001,VS,STUDY001-SUBJ0026,42,WEIGHT,Weight,115.5,kg,115.5,115.5,kg,,END OF TREATMENT,9,2026-03-07,140
STUDY001,VS,STUDY001-SUBJ0026,43,TEMP,Temperature,36.3,C,36.3,36.3,C,,END OF TREATMENT,9,2026-03-07,140
STUDY001,VS,STUDY001-SUBJ0026,44,BP,Blood Pressure,98/81,mmHg,98/81,,mmHg,,END OF TREATMENT,9,2026-03-07,140
STUDY001,VS,STUDY001-SUBJ0026,45,HR,Heart Rate,76,beats/min,76,76.0,beats/min,,END OF TREATMENT,9,2026-03-07,140
STUDY001,VS,STUDY001-SUBJ0027,1,HEIGHT,Height,192.6,cm,192.6,192.6,cm,,SCREENING,1,2025-04-01,-14
STUDY001,VS,STUDY001-SUBJ0027,2,WEIGHT,Weight,67.4,kg,67.4,67.4,kg,,SCREENING,1,2025-04-01,-14
STUDY001,VS,STUDY001-SUBJ0027,3,TEMP,Temperature,37.1,C,37.1,37.1,C,,SCREENING,1,2025-04-01,-14
STUDY001,VS,STUDY001-SUBJ0027,4,BP,Blood Pressure,126/86,mmHg,126/86,,mmHg,,SCREENING,1,2025-04-01,-14
STUDY001,VS,STUDY001-SUBJ0027,5,HR,Heart Rate,83,beats/min,83,83.0,beats/min,,SCREENING,1,2025-04-01,-14
STUDY001,VS,STUDY001-SUBJ0027,6,HEIGHT,Height,192.6,cm,192.6,192.6,cm,Y,BASELINE,2,2025-04-15,1
STUDY001,VS,STUDY001-SUBJ0027,7,WEIGHT,Weight,67.1,kg,67.1,67.1,kg,Y,BASELINE,2,2025-04-15,1
STUDY001,VS,STUDY001-SUBJ0027,8,TEMP,Temperature,37.1,C,37.1,37.1,C,Y,BASELINE,2,2025-04-15,1
STUDY001,VS,STUDY001-SUBJ0027,9,BP,Blood Pressure,131/91,mmHg,131/91,,mmHg,Y,BASELINE,2,2025-04-15,1
STUDY001,VS,STUDY001-SUBJ0027,10,HR,Heart Rate,90,beats/min,90,90.0,beats/min,Y,BASELINE,2,2025-04-15,1
STUDY001,VS,STUDY001-SUBJ0027,11,HEIGHT,Height,192.4,cm,192.4,192.4,cm,,WEEK 1,3,2025-04-21,7
STUDY001,VS,STUDY001-SUBJ0027,12,WEIGHT,Weight,68.1,kg,68.1,68.1,kg,,WEEK 1,3,2025-04-21,7
STUDY001,VS,STUDY001-SUBJ0027,13,TEMP,Temperature,37.0,C,37.0,37.0,C,,WEEK 1,3,2025-04-21,7
STUDY001,VS,STUDY001-SUBJ0027,14,BP,Blood Pressure,124/83,mmHg,124/83,,mmHg,,WEEK 1,3,2025-04-21,7
STUDY001,VS,STUDY001-SUBJ0027,15,HR,Heart Rate,92,beats/min,92,92.0,beats/min,,WEEK 1,3,2025-04-21,7
STUDY001,VS,STUDY001-SUBJ0027,16,HEIGHT,Height,192.6,cm,192.6,192.6,cm,,WEEK 2,4,2025-04-28,14
STUDY001,VS,STUDY001-SUBJ0027,17,WEIGHT,Weight,68.2,kg,68.2,68.2,kg,,WEEK 2,4,2025-04-28,14
STUDY001,VS,STUDY001-SUBJ0027,18,TEMP,Temperature,36.9,C,36.9,36.9,C,,WEEK 2,4,2025-04-28,14
STUDY001,VS,STUDY001-SUBJ0027,19,BP,Blood Pressure,123/84,mmHg,123/84,,mmHg,,WEEK 2,4,2025-04-28,14
STUDY001,VS,STUDY001-SUBJ0027,20,HR,Heart Rate,88,beats/min,88,88.0,beats/min,,WEEK 2,4,2025-04-28,14
STUDY001,VS,STUDY001-SUBJ0027,21,HEIGHT,Height,192.7,cm,192.7,192.7,cm,,WEEK 4,5,2025-05-12,28
STUDY001,VS,STUDY001-SUBJ0027,22,WEIGHT,Weight,67.8,kg,67.8,67.8,kg,,WEEK 4,5,2025-05-12,28
STUDY001,VS,STUDY001-SUBJ0027,23,TEMP,Temperature,37.1,C,37.1,37.1,C,,WEEK 4,5,2025-05-12,28
STUDY001,VS,STUDY001-SUBJ0027,24,BP,Blood Pressure,123/87,mmHg,123/87,,mmHg,,WEEK 4,5,2025-05-12,28
STUDY001,VS,STUDY001-SUBJ0027,25,HR,Heart Rate,91,beats/min,91,91.0,beats/min,,WEEK 4,5,2025-05-12,28
STUDY001,VS,STUDY001-SUBJ0027,26,HEIGHT,Height,192.8,cm,192.8,192.8,cm,,WEEK 8,6,2025-06-09,56
STUDY001,VS,STUDY001-SUBJ0027,27,WEIGHT,Weight,67.5,kg,67.5,67.5,kg,,WEEK 8,6,2025-06-09,56
STUDY001,VS,STUDY001-SUBJ0027,28,TEMP,Temperature,37.2,C,37.2,37.2,C,,WEEK 8,6,2025-06-09,56
STUDY001,VS,STUDY001-SUBJ0027,29,BP,Blood Pressure,128/87,mmHg,128/87,,mmHg,,WEEK 8,6,2025-06-09,56
STUDY001,VS,STUDY001-SUBJ0027,30,HR,Heart Rate,91,beats/min,91,91.0,beats/min,,WEEK 8,6,2025-06-09,56
STUDY001,VS,STUDY001-SUBJ0027,31,HEIGHT,Height,192.6,cm,192.6,192.6,cm,,WEEK 12,7,2025-07-07,84
STUDY001,VS,STUDY001-SUBJ0027,32,WEIGHT,Weight,67.6,kg,67.6,67.6,kg,,WEEK 12,7,2025-07-07,84
STUDY001,VS,STUDY001-SUBJ0027,33,TEMP,Temperature,37.3,C,37.3,37.3,C,,WEEK 12,7,2025-07-07,84
STUDY001,VS,STUDY001-SUBJ0027,34,BP,Blood Pressure,125/85,mmHg,125/85,,mmHg,,WEEK 12,7,2025-07-07,84
STUDY001,VS,STUDY001-SUBJ0027,35,HR,Heart Rate,85,beats/min,85,85.0,beats/min,,WEEK 12,7,2025-07-07,84
STUDY001,VS,STUDY001-SUBJ0027,36,HEIGHT,Height,192.5,cm,192.5,192.5,cm,,WEEK 16,8,2025-08-04,112
STUDY001,VS,STUDY001-SUBJ0027,37,WEIGHT,Weight,67.7,kg,67.7,67.7,kg,,WEEK 16,8,2025-08-04,112
STUDY001,VS,STUDY001-SUBJ0027,38,TEMP,Temperature,37.2,C,37.2,37.2,C,,WEEK 16,8,2025-08-04,112
STUDY001,VS,STUDY001-SUBJ0027,39,BP,Blood Pressure,132/85,mmHg,132/85,,mmHg,,WEEK 16,8,2025-08-04,112
STUDY001,VS,STUDY001-SUBJ0027,40,HR,Heart Rate,88,beats/min,88,88.0,beats/min,,WEEK 16,8,2025-08-04,112
STUDY001,VS,STUDY001-SUBJ0027,41,HEIGHT,Height,192.8,cm,192.8,192.8,cm,,END OF TREATMENT,9,2025-09-01,140
STUDY001,VS,STUDY001-SUBJ0027,42,WEIGHT,Weight,68.4,kg,68.4,68.4,kg,,END OF TREATMENT,9,2025-09-01,140
STUDY001,VS,STUDY001-SUBJ0027,43,TEMP,Temperature,37.0,C,37.0,37.0,C,,END OF TREATMENT,9,2025-09-01,140
STUDY001,VS,STUDY001-SUBJ0027,44,BP,Blood Pressure,132/92,mmHg,132/92,,mmHg,,END OF TREATMENT,9,2025-09-01,140
STUDY001,VS,STUDY001-SUBJ0027,45,HR,Heart Rate,86,beats/min,86,86.0,beats/min,,END OF TREATMENT,9,2025-09-01,140
STUDY001,VS,STUDY001-SUBJ0028,1,HEIGHT,Height,167.0,cm,167.0,167.0,cm,,SCREENING,1,2025-06-11,-14
STUDY001,VS,STUDY001-SUBJ0028,2,WEIGHT,Weight,119.9,kg,119.9,119.9,kg,,SCREENING,1,2025-06-11,-14
STUDY001,VS,STUDY001-SUBJ0028,3,TEMP,Temperature,36.4,C,36.4,36.4,C,,SCREENING,1,2025-06-11,-14
STUDY001,VS,STUDY001-SUBJ0028,4,BP,Blood Pressure,102/78,mmHg,102/78,,mmHg,,SCREENING,1,2025-06-11,-14
STUDY001,VS,STUDY001-SUBJ0028,5,HR,Heart Rate,76,beats/min,76,76.0,beats/min,,SCREENING,1,2025-06-11,-14
STUDY001,VS,STUDY001-SUBJ0028,6,HEIGHT,Height,167.0,cm,167.0,167.0,cm,Y,BASELINE,2,2025-06-25,1
STUDY001,VS,STUDY001-SUBJ0028,7,WEIGHT,Weight,119.9,kg,119.9,119.9,kg,Y,BASELINE,2,2025-06-25,1
STUDY001,VS,STUDY001-SUBJ0028,8,TEMP,Temperature,36.8,C,36.8,36.8,C,Y,BASELINE,2,2025-06-25,1
STUDY001,VS,STUDY001-SUBJ0028,9,BP,Blood Pressure,100/78,mmHg,100/78,,mmHg,Y,BASELINE,2,2025-06-25,1
STUDY001,VS,STUDY001-SUBJ0028,10,HR,Heart Rate,76,beats/min,76,76.0,beats/min,Y,BASELINE,2,2025-06-25,1
STUDY001,VS,STUDY001-SUBJ0028,11,HEIGHT,Height,167.2,cm,167.2,167.2,cm,,WEEK 1,3,2025-07-01,7
STUDY001,VS,STUDY001-SUBJ0028,12,WEIGHT,Weight,119.8,kg,119.8,119.8,kg,,WEEK 1,3,2025-07-01,7
STUDY001,VS,STUDY001-SUBJ0028,13,TEMP,Temperature,36.4,C,36.4,36.4,C,,WEEK 1,3,2025-07-01,7
STUDY001,VS,STUDY001-SUBJ0028,14,BP,Blood Pressure,105/75,mmHg,105/75,,mmHg,,WEEK 1,3,2025-07-01,7
STUDY001,VS,STUDY001-SUBJ0028,15,HR,Heart Rate,77,beats/min,77,77.0,beats/min,,WEEK 1,3,2025-07-01,7
STUDY001,VS,STUDY001-SUBJ0028,16,HEIGHT,Height,167.0,cm,167.0,167.0,cm,,WEEK 2,4,2025-07-08,14
STUDY001,VS,STUDY001-SUBJ0028,17,WEIGHT,Weight,120.2,kg,120.2,120.2,kg,,WEEK 2,4,2025-07-08,14
STUDY001,VS,STUDY001-SUBJ0028,18,TEMP,Temperature,36.5,C,36.5,36.5,C,,WEEK 2,4,2025-07-08,14
STUDY001,VS,STUDY001-SUBJ0028,19,BP,Blood Pressure,97/78,mmHg,97/78,,mmHg,,WEEK 2,4,2025-07-08,14
STUDY001,VS,STUDY001-SUBJ0028,20,HR,Heart Rate,83,beats/min,83,83.0,beats/min,,WEEK 2,4,2025-07-08,14
STUDY001,VS,STUDY001-SUBJ0028,21,HEIGHT,Height,166.9,cm,166.9,166.9,cm,,WEEK 4,5,2025-07-22,28
STUDY001,VS,STUDY001-SUBJ0028,22,WEIGHT,Weight,120.6,kg,120.6,120.6,kg,,WEEK 4,5,2025-07-22,28
STUDY001,VS,STUDY001-SUBJ0028,23,TEMP,Temperature,36.8,C,36.8,36.8,C,,WEEK 4,5,2025-07-22,28
STUDY001,VS,STUDY001-SUBJ0028,24,BP,Blood Pressure,100/79,mmHg,100/79,,mmHg,,WEEK 4,5,2025-07-22,28
STUDY001,VS,STUDY001-SUBJ0028,25,HR,Heart Rate,75,beats/min,75,75.0,beats/min,,WEEK 4,5,2025-07-22,28
STUDY001,VS,STUDY001-SUBJ0028,26,HEIGHT,Height,167.1,cm,167.1,167.1,cm,,WEEK 8,6,2025-08-19,56
STUDY001,VS,STUDY001-SUBJ0028,27,WEIGHT,Weight,119.6,kg,119.6,119.6,kg,,WEEK 8,6,2025-08-19,56
STUDY001,VS,STUDY001-SUBJ0028,28,TEMP,Temperature,36.6,C,36.6,36.6,C,,WEEK 8,6,2025-08-19,56
STUDY001,VS,STUDY001-SUBJ0028,29,BP,Blood Pressure,103/80,mmHg,103/80,,mmHg,,WEEK 8,6,2025-08-19,56
STUDY001,VS,STUDY001-SUBJ0028,30,HR,Heart Rate,82,beats/min,82,82.0,beats/min,,WEEK 8,6,2025-08-19,56
STUDY001,VS,STUDY001-SUBJ0028,31,HEIGHT,Height,166.9,cm,166.9,166.9,cm,,WEEK 12,7,2025-09-16,84
STUDY001,VS,STUDY001-SUBJ0028,32,WEIGHT,Weight,119.4,kg,119.4,119.4,kg,,WEEK 12,7,2025-09-16,84
STUDY001,VS,STUDY001-SUBJ0028,33,TEMP,Temperature,36.6,C,36.6,36.6,C,,WEEK 12,7,2025-09-16,84
STUDY001,VS,STUDY001-SUBJ0028,34,BP,Blood Pressure,103/80,mmHg,103/80,,mmHg,,WEEK 12,7,2025-09-16,84
STUDY001,VS,STUDY001-SUBJ0028,35,HR,Heart Rate,76,beats/min,76,76.0,beats/min,,WEEK 12,7,2025-09-16,84
STUDY001,VS,STUDY001-SUBJ0028,36,HEIGHT,Height,167.2,cm,167.2,167.2,cm,,WEEK 16,8,2025-10-14,112
STUDY001,VS,STUDY001-SUBJ0028,37,WEIGHT,Weight,119.7,kg,119.7,119.7,kg,,WEEK 16,8,2025-10-14,112
STUDY001,VS,STUDY001-SUBJ0028,38,TEMP,Temperature,36.6,C,36.6,36.6,C,,WEEK 16,8,2025-10-14,112
STUDY001,VS,STUDY001-SUBJ0028,39,BP,Blood Pressure,99/76,mmHg,99/76,,mmHg,,WEEK 16,8,2025-10-14,112
STUDY001,VS,STUDY001-SUBJ0028,40,HR,Heart Rate,75,beats/min,75,75.0,beats/min,,WEEK 16,8,2025-10-14,112
STUDY001,VS,STUDY001-SUBJ0028,41,HEIGHT,Height,167.2,cm,167.2,167.2,cm,,END OF TREATMENT,9,2025-11-11,140
STUDY001,VS,STUDY001-SUBJ0028,42,WEIGHT,Weight,119.0,kg,119.0,119.0,kg,,END OF TREATMENT,9,2025-11-11,140
STUDY001,VS,STUDY001-SUBJ0028,43,TEMP,Temperature,36.5,C,36.5,36.5,C,,END OF TREATMENT,9,2025-11-11,140
STUDY001,VS,STUDY001-SUBJ0028,44,BP,Blood Pressure,97/78,mmHg,97/78,,mmHg,,END OF TREATMENT,9,2025-11-11,140
STUDY001,VS,STUDY001-SUBJ0028,45,HR,Heart Rate,80,beats/min,80,80.0,beats/min,,END OF TREATMENT,9,2025-11-11,140
STUDY001,VS,STUDY001-SUBJ0029,1,HEIGHT,Height,183.7,cm,183.7,183.7,cm,,SCREENING,1,2025-09-29,-14
STUDY001,VS,STUDY001-SUBJ0029,2,WEIGHT,Weight,52.3,kg,52.3,52.3,kg,,SCREENING,1,2025-09-29,-14
STUDY001,VS,STUDY001-SUBJ0029,3,TEMP,Temperature,37.2,C,37.2,37.2,C,,SCREENING,1,2025-09-29,-14
STUDY001,VS,STUDY001-SUBJ0029,4,BP,Blood Pressure,103/92,mmHg,103/92,,mmHg,,SCREENING,1,2025-09-29,-14
STUDY001,VS,STUDY001-SUBJ0029,5,HR,Heart Rate,84,beats/min,84,84.0,beats/min,,SCREENING,1,2025-09-29,-14
STUDY001,VS,STUDY001-SUBJ0029,6,HEIGHT,Height,183.7,cm,183.7,183.7,cm,Y,BASELINE,2,2025-10-13,1
STUDY001,VS,STUDY001-SUBJ0029,7,WEIGHT,Weight,50.9,kg,50.9,50.9,kg,Y,BASELINE,2,2025-10-13,1
STUDY001,VS,STUDY001-SUBJ0029,8,TEMP,Temperature,37.0,C,37.0,37.0,C,Y,BASELINE,2,2025-10-13,1
STUDY001,VS,STUDY001-SUBJ0029,9,BP,Blood Pressure,103/90,mmHg,103/90,,mmHg,Y,BASELINE,2,2025-10-13,1
STUDY001,VS,STUDY001-SUBJ0029,10,HR,Heart Rate,80,beats/min,80,80.0,beats/min,Y,BASELINE,2,2025-10-13,1
STUDY001,VS,STUDY001-SUBJ0029,11,HEIGHT,Height,183.8,cm,183.8,183.8,cm,,WEEK 1,3,2025-10-19,7
STUDY001,VS,STUDY001-SUBJ0029,12,WEIGHT,Weight,51.4,kg,51.4,51.4,kg,,WEEK 1,3,2025-10-19,7
STUDY001,VS,STUDY001-SUBJ0029,13,TEMP,Temperature,36.8,C,36.8,36.8,C,,WEEK 1,3,2025-10-19,7
STUDY001,VS,STUDY001-SUBJ0029,14,BP,Blood Pressure,107/89,mmHg,107/89,,mmHg,,WEEK 1,3,2025-10-19,7
STUDY001,VS,STUDY001-SUBJ0029,15,HR,Heart Rate,81,beats/min,81,81.0,beats/min,,WEEK 1,3,2025-10-19,7
STUDY001,VS,STUDY001-SUBJ0029,16,HEIGHT,Height,183.6,cm,183.6,183.6,cm,,WEEK 2,4,2025-10-26,14
STUDY001,VS,STUDY001-SUBJ0029,17,WEIGHT,Weight,50.4,kg,50.4,50.4,kg,,WEEK 2,4,2025-10-26,14
STUDY001,VS,STUDY001-SUBJ0029,18,TEMP,Temperature,37.0,C,37.0,37.0,C,,WEEK 2,4,2025-10-26,14
STUDY001,VS,STUDY001-SUBJ0029,19,BP,Blood Pressure,104/94,mmHg,104/94,,mmHg,,WEEK 2,4,2025-10-26,14
STUDY001,VS,STUDY001-SUBJ0029,20,HR,Heart Rate,81,beats/min,81,81.0,beats/min,,WEEK 2,4,2025-10-26,14
STUDY001,VS,STUDY001-SUBJ0029,21,HEIGHT,Height,183.8,cm,183.8,183.8,cm,,WEEK 4,5,2025-11-09,28
STUDY001,VS,STUDY001-SUBJ0029,22,WEIGHT,Weight,51.7,kg,51.7,51.7,kg,,WEEK 4,5,2025-11-09,28
STUDY001,VS,STUDY001-SUBJ0029,23,TEMP,Temperature,37.1,C,37.1,37.1,C,,WEEK 4,5,2025-11-09,28
STUDY001,VS,STUDY001-SUBJ0029,24,BP,Blood Pressure,103/89,mmHg,103/89,,mmHg,,WEEK 4,5,2025-11-09,28
STUDY001,VS,STUDY001-SUBJ0029,25,HR,Heart Rate,81,beats/min,81,81.0,beats/min,,WEEK 4,5,2025-11-09,28
STUDY001,VS,STUDY001-SUBJ0029,26,HEIGHT,Height,183.9,cm,183.9,183.9,cm,,WEEK 8,6,2025-12-07,56
STUDY001,VS,STUDY001-SUBJ0029,27,WEIGHT,Weight,51.0,kg,51.0,51.0,kg,,WEEK 8,6,2025-12-07,56
STUDY001,VS,STUDY001-SUBJ0029,28,TEMP,Temperature,37.2,C,37.2,37.2,C,,WEEK 8,6,2025-12-07,56
STUDY001,VS,STUDY001-SUBJ0029,29,BP,Blood Pressure,99/90,mmHg,99/90,,mmHg,,WEEK 8,6,2025-12-07,56
STUDY001,VS,STUDY001-SUBJ0029,30,HR,Heart Rate,82,beats/min,82,82.0,beats/min,,WEEK 8,6,2025-12-07,56
STUDY001,VS,STUDY001-SUBJ0029,31,HEIGHT,Height,183.8,cm,183.8,183.8,cm,,WEEK 12,7,2026-01-04,84
STUDY001,VS,STUDY001-SUBJ0029,32,WEIGHT,Weight,50.7,kg,50.7,50.7,kg,,WEEK 12,7,2026-01-04,84
STUDY001,VS,STUDY001-SUBJ0029,33,TEMP,Temperature,36.7,C,36.7,36.7,C,,WEEK 12,7,2026-01-04,84
STUDY001,VS,STUDY001-SUBJ0029,34,BP,Blood Pressure,102/92,mmHg,102/92,,mmHg,,WEEK 12,7,2026-01-04,84
STUDY001,VS,STUDY001-SUBJ0029,35,HR,Heart Rate,84,beats/min,84,84.0,beats/min,,WEEK 12,7,2026-01-04,84
STUDY001,VS,STUDY001-SUBJ0029,36,HEIGHT,Height,183.7,cm,183.7,183.7,cm,,WEEK 16,8,2026-02-01,112
STUDY001,VS,STUDY001-SUBJ0029,37,WEIGHT,Weight,50.9,kg,50.9,50.9,kg,,WEEK 16,8,2026-02-01,112
STUDY001,VS,STUDY001-SUBJ0029,38,TEMP,Temperature,37.0,C,37.0,37.0,C,,WEEK 16,8,2026-02-01,112
STUDY001,VS,STUDY001-SUBJ0029,39,BP,Blood Pressure,105/89,mmHg,105/89,,mmHg,,WEEK 16,8,2026-02-01,112
STUDY001,VS,STUDY001-SUBJ0029,40,HR,Heart Rate,78,beats/min,78,78.0,beats/min,,WEEK 16,8,2026-02-01,112
STUDY001,VS,STUDY001-SUBJ0029,41,HEIGHT,Height,183.7,cm,183.7,183.7,cm,,END OF TREATMENT,9,2026-03-01,140
STUDY001,VS,STUDY001-SUBJ0029,42,WEIGHT,Weight,50.9,kg,50.9,50.9,kg,,END OF TREATMENT,9,2026-03-01,140
STUDY001,VS,STUDY001-SUBJ0029,43,TEMP,Temperature,37.2,C,37.2,37.2,C,,END OF TREATMENT,9,2026-03-01,140
STUDY001,VS,STUDY001-SUBJ0029,44,BP,Blood Pressure,106/87,mmHg,106/87,,mmHg,,END OF TREATMENT,9,2026-03-01,140
STUDY001,VS,STUDY001-SUBJ0029,45,HR,Heart Rate,79,beats/min,79,79.0,beats/min,,END OF TREATMENT,9,2026-03-01,140
STUDY001,VS,STUDY001-SUBJ0030,1,HEIGHT,Height,175.5,cm,175.5,175.5,cm,,SCREENING,1,2025-02-27,-14
STUDY001,VS,STUDY001-SUBJ0030,2,WEIGHT,Weight,104.7,kg,104.7,104.7,kg,,SCREENING,1,2025-02-27,-14
STUDY001,VS,STUDY001-SUBJ0030,3,TEMP,Temperature,36.5,C,36.5,36.5,C,,SCREENING,1,2025-02-27,-14
STUDY001,VS,STUDY001-SUBJ0030,4,BP,Blood Pressure,121/93,mmHg,121/93,,mmHg,,SCREENING,1,2025-02-27,-14
STUDY001,VS,STUDY001-SUBJ0030,5,HR,Heart Rate,70,beats/min,70,70.0,beats/min,,SCREENING,1,2025-02-27,-14
STUDY001,VS,STUDY001-SUBJ0030,6,HEIGHT,Height,175.7,cm,175.7,175.7,cm,Y,BASELINE,2,2025-03-13,1
STUDY001,VS,STUDY001-SUBJ0030,7,WEIGHT,Weight,104.0,kg,104.0,104.0,kg,Y,BASELINE,2,2025-03-13,1
STUDY001,VS,STUDY001-SUBJ0030,8,TEMP,Temperature,36.8,C,36.8,36.8,C,Y,BASELINE,2,2025-03-13,1
STUDY001,VS,STUDY001-SUBJ0030,9,BP,Blood Pressure,120/100,mmHg,120/100,,mmHg,Y,BASELINE,2,2025-03-13,1
STUDY001,VS,STUDY001-SUBJ0030,10,HR,Heart Rate,63,beats/min,63,63.0,beats/min,Y,BASELINE,2,2025-03-13,1
STUDY001,VS,STUDY001-SUBJ0030,11,HEIGHT,Height,175.5,cm,175.5,175.5,cm,,WEEK 1,3,2025-03-19,7
STUDY001,VS,STUDY001-SUBJ0030,12,WEIGHT,Weight,104.1,kg,104.1,104.1,kg,,WEEK 1,3,2025-03-19,7
STUDY001,VS,STUDY001-SUBJ0030,13,TEMP,Temperature,36.9,C,36.9,36.9,C,,WEEK 1,3,2025-03-19,7
STUDY001,VS,STUDY001-SUBJ0030,14,BP,Blood Pressure,119/94,mmHg,119/94,,mmHg,,WEEK 1,3,2025-03-19,7
STUDY001,VS,STUDY001-SUBJ0030,15,HR,Heart Rate,68,beats/min,68,68.0,beats/min,,WEEK 1,3,2025-03-19,7
STUDY001,VS,STUDY001-SUBJ0030,16,HEIGHT,Height,175.6,cm,175.6,175.6,cm,,WEEK 2,4,2025-03-26,14
STUDY001,VS,STUDY001-SUBJ0030,17,WEIGHT,Weight,104.7,kg,104.7,104.7,kg,,WEEK 2,4,2025-03-26,14
STUDY001,VS,STUDY001-SUBJ0030,18,TEMP,Temperature,36.8,C,36.8,36.8,C,,WEEK 2,4,2025-03-26,14
STUDY001,VS,STUDY001-SUBJ0030,19,BP,Blood Pressure,126/96,mmHg,126/96,,mmHg,,WEEK 2,4,2025-03-26,14
STUDY001,VS,STUDY001-SUBJ0030,20,HR,Heart Rate,67,beats/min,67,67.0,beats/min,,WEEK 2,4,2025-03-26,14
STUDY001,VS,STUDY001-SUBJ0030,21,HEIGHT,Height,175.4,cm,175.4,175.4,cm,,WEEK 4,5,2025-04-09,28
STUDY001,VS,STUDY001-SUBJ0030,22,WEIGHT,Weight,103.9,kg,103.9,103.9,kg,,WEEK 4,5,2025-04-09,28
STUDY001,VS,STUDY001-SUBJ0030,23,TEMP,Temperature,36.4,C,36.4,36.4,C,,WEEK 4,5,2025-04-09,28
STUDY001,VS,STUDY001-SUBJ0030,24,BP,Blood Pressure,121/96,mmHg,121/96,,mmHg,,WEEK 4,5,2025-04-09,28
STUDY001,VS,STUDY001-SUBJ0030,25,HR,Heart Rate,65,beats/min,65,65.0,beats/min,,WEEK 4,5,2025-04-09,28
STUDY001,VS,STUDY001-SUBJ0030,26,HEIGHT,Height,175.6,cm,175.6,175.6,cm,,WEEK 8,6,2025-05-07,56
STUDY001,VS,STUDY001-SUBJ0030,27,WEIGHT,Weight,103.7,kg,103.7,103.7,kg,,WEEK 8,6,2025-05-07,56
STUDY001,VS,STUDY001-SUBJ0030,28,TEMP,Temperature,36.9,C,36.9,36.9,C,,WEEK 8,6,2025-05-07,56
STUDY001,VS,STUDY001-SUBJ0030,29,BP,Blood Pressure,124/92,mmHg,124/92,,mmHg,,WEEK 8,6,2025-05-07,56
STUDY001,VS,STUDY001-SUBJ0030,30,HR,Heart Rate,67,beats/min,67,67.0,beats/min,,WEEK 8,6,2025-05-07,56
STUDY001,VS,STUDY001-SUBJ0030,31,HEIGHT,Height,175.6,cm,175.6,175.6,cm,,WEEK 12,7,2025-06-04,84
STUDY001,VS,STUDY001-SUBJ0030,32,WEIGHT,Weight,104.9,kg,104.9,104.9,kg,,WEEK 12,7,2025-06-04,84
STUDY001,VS,STUDY001-SUBJ0030,33,TEMP,Temperature,36.6,C,36.6,36.6,C,,WEEK 12,7,2025-06-04,84
STUDY001,VS,STUDY001-SUBJ0030,34,BP,Blood Pressure,121/99,mmHg,121/99,,mmHg,,WEEK 12,7,2025-06-04,84
STUDY001,VS,STUDY001-SUBJ0030,35,HR,Heart Rate,67,beats/min,67,67.0,beats/min,,WEEK 12,7,2025-06-04,84
STUDY001,VS,STUDY001-SUBJ0030,36,HEIGHT,Height,175.5,cm,175.5,175.5,cm,,WEEK 16,8,2025-07-02,112
STUDY001,VS,STUDY001-SUBJ0030,37,WEIGHT,Weight,104.0,kg,104.0,104.0,kg,,WEEK 16,8,2025-07-02,112
STUDY001,VS,STUDY001-SUBJ0030,38,TEMP,Temperature,36.6,C,36.6,36.6,C,,WEEK 16,8,2025-07-02,112
STUDY001,VS,STUDY001-SUBJ0030,39,BP,Blood Pressure,119/100,mmHg,119/100,,mmHg,,WEEK 16,8,2025-07-02,112
STUDY001,VS,STUDY001-SUBJ0030,40,HR,Heart Rate,64,beats/min,64,64.0,beats/min,,WEEK 16,8,2025-07-02,112
STUDY001,VS,STUDY001-SUBJ0030,41,HEIGHT,Height,175.5,cm,175.5,175.5,cm,,END OF TREATMENT,9,2025-07-30,140
STUDY001,VS,STUDY001-SUBJ0030,42,WEIGHT,Weight,104.3,kg,104.3,104.3,kg,,END OF TREATMENT,9,2025-07-30,140
STUDY001,VS,STUDY001-SUBJ0030,43,TEMP,Temperature,36.5,C,36.5,36.5,C,,END OF TREATMENT,9,2025-07-30,140
STUDY001,VS,STUDY001-SUBJ0030,44,BP,Blood Pressure,125/97,mmHg,125/97,,mmHg,,END OF TREATMENT,9,2025-07-30,140
STUDY001,VS,STUDY001-SUBJ0030,45,HR,Heart Rate,70,beats/min,70,70.0,beats/min,,END OF TREATMENT,9,2025-07-30,140
STUDY001,VS,STUDY001-SUBJ0031,1,HEIGHT,Height,164.3,cm,164.3,164.3,cm,,SCREENING,1,2025-03-06,-14
STUDY001,VS,STUDY001-SUBJ0031,2,WEIGHT,Weight,106.2,kg,106.2,106.2,kg,,SCREENING,1,2025-03-06,-14
STUDY001,VS,STUDY001-SUBJ0031,3,TEMP,Temperature,36.2,C,36.2,36.2,C,,SCREENING,1,2025-03-06,-14
STUDY001,VS,STUDY001-SUBJ0031,4,BP,Blood Pressure,147/90,mmHg,147/90,,mmHg,,SCREENING,1,2025-03-06,-14
STUDY001,VS,STUDY001-SUBJ0031,5,HR,Heart Rate,74,beats/min,74,74.0,beats/min,,SCREENING,1,2025-03-06,-14
STUDY001,VS,STUDY001-SUBJ0031,6,HEIGHT,Height,164.2,cm,164.2,164.2,cm,Y,BASELINE,2,2025-03-20,1
STUDY001,VS,STUDY001-SUBJ0031,7,WEIGHT,Weight,105.7,kg,105.7,105.7,kg,Y,BASELINE,2,2025-03-20,1
STUDY001,VS,STUDY001-SUBJ0031,8,TEMP,Temperature,36.4,C,36.4,36.4,C,Y,BASELINE,2,2025-03-20,1
STUDY001,VS,STUDY001-SUBJ0031,9,BP,Blood Pressure,143/84,mmHg,143/84,,mmHg,Y,BASELINE,2,2025-03-20,1
STUDY001,VS,STUDY001-SUBJ0031,10,HR,Heart Rate,76,beats/min,76,76.0,beats/min,Y,BASELINE,2,2025-03-20,1
STUDY001,VS,STUDY001-SUBJ0031,11,HEIGHT,Height,164.2,cm,164.2,164.2,cm,,WEEK 1,3,2025-03-26,7
STUDY001,VS,STUDY001-SUBJ0031,12,WEIGHT,Weight,104.5,kg,104.5,104.5,kg,,WEEK 1,3,2025-03-26,7
STUDY001,VS,STUDY001-SUBJ0031,13,TEMP,Temperature,36.6,C,36.6,36.6,C,,WEEK 1,3,2025-03-26,7
STUDY001,VS,STUDY001-SUBJ0031,14,BP,Blood Pressure,152/90,mmHg,152/90,,mmHg,,WEEK 1,3,2025-03-26,7
STUDY001,VS,STUDY001-SUBJ0031,15,HR,Heart Rate,73,beats/min,73,73.0,beats/min,,WEEK 1,3,2025-03-26,7
STUDY001,VS,STUDY001-SUBJ0031,16,HEIGHT,Height,164.1,cm,164.1,164.1,cm,,WEEK 2,4,2025-04-02,14
STUDY001,VS,STUDY001-SUBJ0031,17,WEIGHT,Weight,104.9,kg,104.9,104.9,kg,,WEEK 2,4,2025-04-02,14
STUDY001,VS,STUDY001-SUBJ0031,18,TEMP,Temperature,36.3,C,36.3,36.3,C,,WEEK 2,4,2025-04-02,14
STUDY001,VS,STUDY001-SUBJ0031,19,BP,Blood Pressure,148/86,mmHg,148/86,,mmHg,,WEEK 2,4,2025-04-02,14
STUDY001,VS,STUDY001-SUBJ0031,20,HR,Heart Rate,73,beats/min,73,73.0,beats/min,,WEEK 2,4,2025-04-02,14
STUDY001,VS,STUDY001-SUBJ0031,21,HEIGHT,Height,164.5,cm,164.5,164.5,cm,,WEEK 4,5,2025-04-16,28
STUDY001,VS,STUDY001-SUBJ0031,22,WEIGHT,Weight,105.0,kg,105.0,105.0,kg,,WEEK 4,5,2025-04-16,28
STUDY001,VS,STUDY001-SUBJ0031,23,TEMP,Temperature,36.7,C,36.7,36.7,C,,WEEK 4,5,2025-04-16,28
STUDY001,VS,STUDY001-SUBJ0031,24,BP,Blood Pressure,149/86,mmHg,149/86,,mmHg,,WEEK 4,5,2025-04-16,28
STUDY001,VS,STUDY001-SUBJ0031,25,HR,Heart Rate,76,beats/min,76,76.0,beats/min,,WEEK 4,5,2025-04-16,28
STUDY001,VS,STUDY001-SUBJ0031,26,HEIGHT,Height,164.1,cm,164.1,164.1,cm,,WEEK 8,6,2025-05-14,56
STUDY001,VS,STUDY001-SUBJ0031,27,WEIGHT,Weight,105.2,kg,105.2,105.2,kg,,WEEK 8,6,2025-05-14,56
STUDY001,VS,STUDY001-SUBJ0031,28,TEMP,Temperature,36.7,C,36.7,36.7,C,,WEEK 8,6,2025-05-14,56
STUDY001,VS,STUDY001-SUBJ0031,29,BP,Blood Pressure,145/83,mmHg,145/83,,mmHg,,WEEK 8,6,2025-05-14,56
STUDY001,VS,STUDY001-SUBJ0031,30,HR,Heart Rate,77,beats/min,77,77.0,beats/min,,WEEK 8,6,2025-05-14,56
STUDY001,VS,STUDY001-SUBJ0031,31,HEIGHT,Height,164.3,cm,164.3,164.3,cm,,WEEK 12,7,2025-06-11,84
STUDY001,VS,STUDY001-SUBJ0031,32,WEIGHT,Weight,106.0,kg,106.0,106.0,kg,,WEEK 12,7,2025-06-11,84
STUDY001,VS,STUDY001-SUBJ0031,33,TEMP,Temperature,36.6,C,36.6,36.6,C,,WEEK 12,7,2025-06-11,84
STUDY001,VS,STUDY001-SUBJ0031,34,BP,Blood Pressure,143/89,mmHg,143/89,,mmHg,,WEEK 12,7,2025-06-11,84
STUDY001,VS,STUDY001-SUBJ0031,35,HR,Heart Rate,78,beats/min,78,78.0,beats/min,,WEEK 12,7,2025-06-11,84
STUDY001,VS,STUDY001-SUBJ0031,36,HEIGHT,Height,164.4,cm,164.4,164.4,cm,,WEEK 16,8,2025-07-09,112
STUDY001,VS,STUDY001-SUBJ0031,37,WEIGHT,Weight,104.5,kg,104.5,104.5,kg,,WEEK 16,8,2025-07-09,112
STUDY001,VS,STUDY001-SUBJ0031,38,TEMP,Temperature,36.5,C,36.5,36.5,C,,WEEK 16,8,2025-07-09,112
STUDY001,VS,STUDY001-SUBJ0031,39,BP,Blood Pressure,150/81,mmHg,150/81,,mmHg,,WEEK 16,8,2025-07-09,112
STUDY001,VS,STUDY001-SUBJ0031,40,HR,Heart Rate,81,beats/min,81,81.0,beats/min,,WEEK 16,8,2025-07-09,112
STUDY001,VS,STUDY001-SUBJ0031,41,HEIGHT,Height,164.1,cm,164.1,164.1,cm,,END OF TREATMENT,9,2025-08-06,140
STUDY001,VS,STUDY001-SUBJ0031,42,WEIGHT,Weight,105.1,kg,105.1,105.1,kg,,END OF TREATMENT,9,2025-08-06,140
STUDY001,VS,STUDY001-SUBJ0031,43,TEMP,Temperature,36.1,C,36.1,36.1,C,,END OF TREATMENT,9,2025-08-06,140
STUDY001,VS,STUDY001-SUBJ0031,44,BP,Blood Pressure,143/86,mmHg,143/86,,mmHg,,END OF TREATMENT,9,2025-08-06,140
STUDY001,VS,STUDY001-SUBJ0031,45,HR,Heart Rate,76,beats/min,76,76.0,beats/min,,END OF TREATMENT,9,2025-08-06,140
STUDY001,VS,STUDY001-SUBJ0032,1,HEIGHT,Height,164.9,cm,164.9,164.9,cm,,SCREENING,1,2025-03-18,-14
STUDY001,VS,STUDY001-SUBJ0032,2,WEIGHT,Weight,84.2,kg,84.2,84.2,kg,,SCREENING,1,2025-03-18,-14
STUDY001,VS,STUDY001-SUBJ0032,3,TEMP,Temperature,36.7,C,36.7,36.7,C,,SCREENING,1,2025-03-18,-14
STUDY001,VS,STUDY001-SUBJ0032,4,BP,Blood Pressure,125/94,mmHg,125/94,,mmHg,,SCREENING,1,2025-03-18,-14
STUDY001,VS,STUDY001-SUBJ0032,5,HR,Heart Rate,55,beats/min,55,55.0,beats/min,,SCREENING,1,2025-03-18,-14
STUDY001,VS,STUDY001-SUBJ0032,6,HEIGHT,Height,165.0,cm,165.0,165.0,cm,Y,BASELINE,2,2025-04-01,1
STUDY001,VS,STUDY001-SUBJ0032,7,WEIGHT,Weight,82.6,kg,82.6,82.6,kg,Y,BASELINE,2,2025-04-01,1
STUDY001,VS,STUDY001-SUBJ0032,8,TEMP,Temperature,36.7,C,36.7,36.7,C,Y,BASELINE,2,2025-04-01,1
STUDY001,VS,STUDY001-SUBJ0032,9,BP,Blood Pressure,126/99,mmHg,126/99,,mmHg,Y,BASELINE,2,2025-04-01,1
STUDY001,VS,STUDY001-SUBJ0032,10,HR,Heart Rate,55,beats/min,55,55.0,beats/min,Y,BASELINE,2,2025-04-01,1
STUDY001,VS,STUDY001-SUBJ0032,11,HEIGHT,Height,164.9,cm,164.9,164.9,cm,,WEEK 1,3,2025-04-07,7
STUDY001,VS,STUDY001-SUBJ0032,12,WEIGHT,Weight,84.1,kg,84.1,84.1,kg,,WEEK 1,3,2025-04-07,7
STUDY001,VS,STUDY001-SUBJ0032,13,TEMP,Temperature,37.0,C,37.0,37.0,C,,WEEK 1,3,2025-04-07,7
STUDY001,VS,STUDY001-SUBJ0032,14,BP,Blood Pressure,130/99,mmHg,130/99,,mmHg,,WEEK 1,3,2025-04-07,7
STUDY001,VS,STUDY001-SUBJ0032,15,HR,Heart Rate,61,beats/min,61,61.0,beats/min,,WEEK 1,3,2025-04-07,7
STUDY001,VS,STUDY001-SUBJ0032,16,HEIGHT,Height,164.9,cm,164.9,164.9,cm,,WEEK 2,4,2025-04-14,14
STUDY001,VS,STUDY001-SUBJ0032,17,WEIGHT,Weight,82.5,kg,82.5,82.5,kg,,WEEK 2,4,2025-04-14,14
STUDY001,VS,STUDY001-SUBJ0032,18,TEMP,Temperature,36.7,C,36.7,36.7,C,,WEEK 2,4,2025-04-14,14
STUDY001,VS,STUDY001-SUBJ0032,19,BP,Blood Pressure,123/100,mmHg,123/100,,mmHg,,WEEK 2,4,2025-04-14,14
STUDY001,VS,STUDY001-SUBJ0032,20,HR,Heart Rate,64,beats/min,64,64.0,beats/min,,WEEK 2,4,2025-04-14,14
STUDY001,VS,STUDY001-SUBJ0032,21,HEIGHT,Height,164.8,cm,164.8,164.8,cm,,WEEK 4,5,2025-04-28,28
STUDY001,VS,STUDY001-SUBJ0032,22,WEIGHT,Weight,84.3,kg,84.3,84.3,kg,,WEEK 4,5,2025-04-28,28
STUDY001,VS,STUDY001-SUBJ0032,23,TEMP,Temperature,37.0,C,37.0,37.0,C,,WEEK 4,5,2025-04-28,28
STUDY001,VS,STUDY001-SUBJ0032,24,BP,Blood Pressure,130/95,mmHg,130/95,,mmHg,,WEEK 4,5,2025-04-28,28
STUDY001,VS,STUDY001-SUBJ0032,25,HR,Heart Rate,62,beats/min,62,62.0,beats/min,,WEEK 4,5,2025-04-28,28
STUDY001,VS,STUDY001-SUBJ0032,26,HEIGHT,Height,165.1,cm,165.1,165.1,cm,,WEEK 8,6,2025-05-26,56
STUDY001,VS,STUDY001-SUBJ0032,27,WEIGHT,Weight,82.8,kg,82.8,82.8,kg,,WEEK 8,6,2025-05-26,56
STUDY001,VS,STUDY001-SUBJ0032,28,TEMP,Temperature,37.0,C,37.0,37.0,C,,WEEK 8,6,2025-05-26,56
STUDY001,VS,STUDY001-SUBJ0032,29,BP,Blood Pressure,126/95,mmHg,126/95,,mmHg,,WEEK 8,6,2025-05-26,56
STUDY001,VS,STUDY001-SUBJ0032,30,HR,Heart Rate,58,beats/min,58,58.0,beats/min,,WEEK 8,6,2025-05-26,56
STUDY001,VS,STUDY001-SUBJ0032,31,HEIGHT,Height,165.0,cm,165.0,165.0,cm,,WEEK 12,7,2025-06-23,84
STUDY001,VS,STUDY001-SUBJ0032,32,WEIGHT,Weight,82.5,kg,82.5,82.5,kg,,WEEK 12,7,2025-06-23,84
STUDY001,VS,STUDY001-SUBJ0032,33,TEMP,Temperature,36.6,C,36.6,36.6,C,,WEEK 12,7,2025-06-23,84
STUDY001,VS,STUDY001-SUBJ0032,34,BP,Blood Pressure,124/95,mmHg,124/95,,mmHg,,WEEK 12,7,2025-06-23,84
STUDY001,VS,STUDY001-SUBJ0032,35,HR,Heart Rate,62,beats/min,62,62.0,beats/min,,WEEK 12,7,2025-06-23,84
STUDY001,VS,STUDY001-SUBJ0032,36,HEIGHT,Height,164.8,cm,164.8,164.8,cm,,WEEK 16,8,2025-07-21,112
STUDY001,VS,STUDY001-SUBJ0032,37,WEIGHT,Weight,83.8,kg,83.8,83.8,kg,,WEEK 16,8,2025-07-21,112
STUDY001,VS,STUDY001-SUBJ0032,38,TEMP,Temperature,36.9,C,36.9,36.9,C,,WEEK 16,8,2025-07-21,112
STUDY001,VS,STUDY001-SUBJ0032,39,BP,Blood Pressure,128/93,mmHg,128/93,,mmHg,,WEEK 16,8,2025-07-21,112
STUDY001,VS,STUDY001-SUBJ0032,40,HR,Heart Rate,59,beats/min,59,59.0,beats/min,,WEEK 16,8,2025-07-21,112
STUDY001,VS,STUDY001-SUBJ0032,41,HEIGHT,Height,164.9,cm,164.9,164.9,cm,,END OF TREATMENT,9,2025-08-18,140
STUDY001,VS,STUDY001-SUBJ0032,42,WEIGHT,Weight,83.8,kg,83.8,83.8,kg,,END OF TREATMENT,9,2025-08-18,140
STUDY001,VS,STUDY001-SUBJ0032,43,TEMP,Temperature,36.7,C,36.7,36.7,C,,END OF TREATMENT,9,2025-08-18,140
STUDY001,VS,STUDY001-SUBJ0032,44,BP,Blood Pressure,127/93,mmHg,127/93,,mmHg,,END OF TREATMENT,9,2025-08-18,140
STUDY001,VS,STUDY001-SUBJ0032,45,HR,Heart Rate,61,beats/min,61,61.0,beats/min,,END OF TREATMENT,9,2025-08-18,140
STUDY001,VS,STUDY001-SUBJ0033,1,HEIGHT,Height,162.3,cm,162.3,162.3,cm,,SCREENING,1,2025-05-06,-14
STUDY001,VS,STUDY001-SUBJ0033,2,WEIGHT,Weight,91.8,kg,91.8,91.8,kg,,SCREENING,1,2025-05-06,-14
STUDY001,VS,STUDY001-SUBJ0033,3,TEMP,Temperature,36.8,C,36.8,36.8,C,,SCREENING,1,2025-05-06,-14
STUDY001,VS,STUDY001-SUBJ0033,4,BP,Blood Pressure,116/80,mmHg,116/80,,mmHg,,SCREENING,1,2025-05-06,-14
STUDY001,VS,STUDY001-SUBJ0033,5,HR,Heart Rate,83,beats/min,83,83.0,beats/min,,SCREENING,1,2025-05-06,-14
STUDY001,VS,STUDY001-SUBJ0033,6,HEIGHT,Height,162.1,cm,162.1,162.1,cm,Y,BASELINE,2,2025-05-20,1
STUDY001,VS,STUDY001-SUBJ0033,7,WEIGHT,Weight,92.3,kg,92.3,92.3,kg,Y,BASELINE,2,2025-05-20,1
STUDY001,VS,STUDY001-SUBJ0033,8,TEMP,Temperature,37.0,C,37.0,37.0,C,Y,BASELINE,2,2025-05-20,1
STUDY001,VS,STUDY001-SUBJ0033,9,BP,Blood Pressure,116/83,mmHg,116/83,,mmHg,Y,BASELINE,2,2025-05-20,1
STUDY001,VS,STUDY001-SUBJ0033,10,HR,Heart Rate,74,beats/min,74,74.0,beats/min,Y,BASELINE,2,2025-05-20,1
STUDY001,VS,STUDY001-SUBJ0033,11,HEIGHT,Height,162.2,cm,162.2,162.2,cm,,WEEK 1,3,2025-05-26,7
STUDY001,VS,STUDY001-SUBJ0033,12,WEIGHT,Weight,91.4,kg,91.4,91.4,kg,,WEEK 1,3,2025-05-26,7
STUDY001,VS,STUDY001-SUBJ0033,13,TEMP,Temperature,36.8,C,36.8,36.8,C,,WEEK 1,3,2025-05-26,7
STUDY001,VS,STUDY001-SUBJ0033,14,BP,Blood Pressure,120/81,mmHg,120/81,,mmHg,,WEEK 1,3,2025-05-26,7
STUDY001,VS,STUDY001-SUBJ0033,15,HR,Heart Rate,78,beats/min,78,78.0,beats/min,,WEEK 1,3,2025-05-26,7
STUDY001,VS,STUDY001-SUBJ0033,16,HEIGHT,Height,162.5,cm,162.5,162.5,cm,,WEEK 2,4,2025-06-02,14
STUDY001,VS,STUDY001-SUBJ0033,17,WEIGHT,Weight,92.4,kg,92.4,92.4,kg,,WEEK 2,4,2025-06-02,14
STUDY001,VS,STUDY001-SUBJ0033,18,TEMP,Temperature,37.0,C,37.0,37.0,C,,WEEK 2,4,2025-06-02,14
STUDY001,VS,STUDY001-SUBJ0033,19,BP,Blood Pressure,120/80,mmHg,120/80,,mmHg,,WEEK 2,4,2025-06-02,14
STUDY001,VS,STUDY001-SUBJ0033,20,HR,Heart Rate,83,beats/min,83,83.0,beats/min,,WEEK 2,4,2025-06-02,14
STUDY001,VS,STUDY001-SUBJ0033,21,HEIGHT,Height,162.4,cm,162.4,162.4,cm,,WEEK 4,5,2025-06-16,28
STUDY001,VS,STUDY001-SUBJ0033,22,WEIGHT,Weight,91.6,kg,91.6,91.6,kg,,WEEK 4,5,2025-06-16,28
STUDY001,VS,STUDY001-SUBJ0033,23,TEMP,Temperature,36.9,C,36.9,36.9,C,,WEEK 4,5,2025-06-16,28
STUDY001,VS,STUDY001-SUBJ0033,24,BP,Blood Pressure,120/79,mmHg,120/79,,mmHg,,WEEK 4,5,2025-06-16,28
STUDY001,VS,STUDY001-SUBJ0033,25,HR,Heart Rate,79,beats/min,79,79.0,beats/min,,WEEK 4,5,2025-06-16,28
STUDY001,VS,STUDY001-SUBJ0033,26,HEIGHT,Height,162.3,cm,162.3,162.3,cm,,WEEK 8,6,2025-07-14,56
STUDY001,VS,STUDY001-SUBJ0033,27,WEIGHT,Weight,92.6,kg,92.6,92.6,kg,,WEEK 8,6,2025-07-14,56
STUDY001,VS,STUDY001-SUBJ0033,28,TEMP,Temperature,37.0,C,37.0,37.0,C,,WEEK 8,6,2025-07-14,56
STUDY001,VS,STUDY001-SUBJ0033,29,BP,Blood Pressure,122/83,mmHg,122/83,,mmHg,,WEEK 8,6,2025-07-14,56
STUDY001,VS,STUDY001-SUBJ0033,30,HR,Heart Rate,75,beats/min,75,75.0,beats/min,,WEEK 8,6,2025-07-14,56
STUDY001,VS,STUDY001-SUBJ0033,31,HEIGHT,Height,162.4,cm,162.4,162.4,cm,,WEEK 12,7,2025-08-11,84
STUDY001,VS,STUDY001-SUBJ0033,32,WEIGHT,Weight,90.9,kg,90.9,90.9,kg,,WEEK 12,7,2025-08-11,84
STUDY001,VS,STUDY001-SUBJ0033,33,TEMP,Temperature,37.0,C,37.0,37.0,C,,WEEK 12,7,2025-08-11,84
STUDY001,VS,STUDY001-SUBJ0033,34,BP,Blood Pressure,121/85,mmHg,121/85,,mmHg,,WEEK 12,7,2025-08-11,84
STUDY001,VS,STUDY001-SUBJ0033,35,HR,Heart Rate,76,beats/min,76,76.0,beats/min,,WEEK 12,7,2025-08-11,84
STUDY001,VS,STUDY001-SUBJ0033,36,HEIGHT,Height,162.3,cm,162.3,162.3,cm,,WEEK 16,8,2025-09-08,112
STUDY001,VS,STUDY001-SUBJ0033,37,WEIGHT,Weight,91.0,kg,91.0,91.0,kg,,WEEK 16,8,2025-09-08,112
STUDY001,VS,STUDY001-SUBJ0033,38,TEMP,Temperature,37.1,C,37.1,37.1,C,,WEEK 16,8,2025-09-08,112
STUDY001,VS,STUDY001-SUBJ0033,39,BP,Blood Pressure,122/85,mmHg,122/85,,mmHg,,WEEK 16,8,2025-09-08,112
STUDY001,VS,STUDY001-SUBJ0033,40,HR,Heart Rate,81,beats/min,81,81.0,beats/min,,WEEK 16,8,2025-09-08,112
STUDY001,VS,STUDY001-SUBJ0033,41,HEIGHT,Height,162.2,cm,162.2,162.2,cm,,END OF TREATMENT,9,2025-10-06,140
STUDY001,VS,STUDY001-SUBJ0033,42,WEIGHT,Weight,92.7,kg,92.7,92.7,kg,,END OF TREATMENT,9,2025-10-06,140
STUDY001,VS,STUDY001-SUBJ0033,43,TEMP,Temperature,36.8,C,36.8,36.8,C,,END OF TREATMENT,9,2025-10-06,140
STUDY001,VS,STUDY001-SUBJ0033,44,BP,Blood Pressure,117/84,mmHg,117/84,,mmHg,,END OF TREATMENT,9,2025-10-06,140
STUDY001,VS,STUDY001-SUBJ0033,45,HR,Heart Rate,77,beats/min,77,77.0,beats/min,,END OF TREATMENT,9,2025-10-06,140
STUDY001,VS,STUDY001-SUBJ0034,1,HEIGHT,Height,157.0,cm,157.0,157.0,cm,,SCREENING,1,2025-03-18,-14
STUDY001,VS,STUDY001-SUBJ0034,2,WEIGHT,Weight,83.4,kg,83.4,83.4,kg,,SCREENING,1,2025-03-18,-14
STUDY001,VS,STUDY001-SUBJ0034,3,TEMP,Temperature,36.1,C,36.1,36.1,C,,SCREENING,1,2025-03-18,-14
STUDY001,VS,STUDY001-SUBJ0034,4,BP,Blood Pressure,115/77,mmHg,115/77,,mmHg,,SCREENING,1,2025-03-18,-14
STUDY001,VS,STUDY001-SUBJ0034,5,HR,Heart Rate,69,beats/min,69,69.0,beats/min,,SCREENING,1,2025-03-18,-14
STUDY001,VS,STUDY001-SUBJ0034,6,HEIGHT,Height,156.8,cm,156.8,156.8,cm,Y,BASELINE,2,2025-04-01,1
STUDY001,VS,STUDY001-SUBJ0034,7,WEIGHT,Weight,84.2,kg,84.2,84.2,kg,Y,BASELINE,2,2025-04-01,1
STUDY001,VS,STUDY001-SUBJ0034,8,TEMP,Temperature,36.4,C,36.4,36.4,C,Y,BASELINE,2,2025-04-01,1
STUDY001,VS,STUDY001-SUBJ0034,9,BP,Blood Pressure,110/75,mmHg,110/75,,mmHg,Y,BASELINE,2,2025-04-01,1
STUDY001,VS,STUDY001-SUBJ0034,10,HR,Heart Rate,66,beats/min,66,66.0,beats/min,Y,BASELINE,2,2025-04-01,1
STUDY001,VS,STUDY001-SUBJ0034,11,HEIGHT,Height,157.0,cm,157.0,157.0,cm,,WEEK 1,3,2025-04-07,7
STUDY001,VS,STUDY001-SUBJ0034,12,WEIGHT,Weight,83.4,kg,83.4,83.4,kg,,WEEK 1,3,2025-04-07,7
STUDY001,VS,STUDY001-SUBJ0034,13,TEMP,Temperature,36.3,C,36.3,36.3,C,,WEEK 1,3,2025-04-07,7
STUDY001,VS,STUDY001-SUBJ0034,14,BP,Blood Pressure,115/75,mmHg,115/75,,mmHg,,WEEK 1,3,2025-04-07,7
STUDY001,VS,STUDY001-SUBJ0034,15,HR,Heart Rate,71,beats/min,71,71.0,beats/min,,WEEK 1,3,2025-04-07,7
STUDY001,VS,STUDY001-SUBJ0034,16,HEIGHT,Height,157.0,cm,157.0,157.0,cm,,WEEK 2,4,2025-04-14,14
STUDY001,VS,STUDY001-SUBJ0034,17,WEIGHT,Weight,85.2,kg,85.2,85.2,kg,,WEEK 2,4,2025-04-14,14
STUDY001,VS,STUDY001-SUBJ0034,18,TEMP,Temperature,36.2,C,36.2,36.2,C,,WEEK 2,4,2025-04-14,14
STUDY001,VS,STUDY001-SUBJ0034,19,BP,Blood Pressure,115/73,mmHg,115/73,,mmHg,,WEEK 2,4,2025-04-14,14
STUDY001,VS,STUDY001-SUBJ0034,20,HR,Heart Rate,73,beats/min,73,73.0,beats/min,,WEEK 2,4,2025-04-14,14
STUDY001,VS,STUDY001-SUBJ0034,21,HEIGHT,Height,156.9,cm,156.9,156.9,cm,,WEEK 4,5,2025-04-28,28
STUDY001,VS,STUDY001-SUBJ0034,22,WEIGHT,Weight,84.7,kg,84.7,84.7,kg,,WEEK 4,5,2025-04-28,28
STUDY001,VS,STUDY001-SUBJ0034,23,TEMP,Temperature,36.2,C,36.2,36.2,C,,WEEK 4,5,2025-04-28,28
STUDY001,VS,STUDY001-SUBJ0034,24,BP,Blood Pressure,110/81,mmHg,110/81,,mmHg,,WEEK 4,5,2025-04-28,28
STUDY001,VS,STUDY001-SUBJ0034,25,HR,Heart Rate,66,beats/min,66,66.0,beats/min,,WEEK 4,5,2025-04-28,28
STUDY001,VS,STUDY001-SUBJ0034,26,HEIGHT,Height,157.1,cm,157.1,157.1,cm,,WEEK 8,6,2025-05-26,56
STUDY001,VS,STUDY001-SUBJ0034,27,WEIGHT,Weight,83.3,kg,83.3,83.3,kg,,WEEK 8,6,2025-05-26,56
STUDY001,VS,STUDY001-SUBJ0034,28,TEMP,Temperature,36.5,C,36.5,36.5,C,,WEEK 8,6,2025-05-26,56
STUDY001,VS,STUDY001-SUBJ0034,29,BP,Blood Pressure,113/80,mmHg,113/80,,mmHg,,WEEK 8,6,2025-05-26,56
STUDY001,VS,STUDY001-SUBJ0034,30,HR,Heart Rate,70,beats/min,70,70.0,beats/min,,WEEK 8,6,2025-05-26,56
STUDY001,VS,STUDY001-SUBJ0034,31,HEIGHT,Height,157.1,cm,157.1,157.1,cm,,WEEK 12,7,2025-06-23,84
STUDY001,VS,STUDY001-SUBJ0034,32,WEIGHT,Weight,84.9,kg,84.9,84.9,kg,,WEEK 12,7,2025-06-23,84
STUDY001,VS,STUDY001-SUBJ0034,33,TEMP,Temperature,36.3,C,36.3,36.3,C,,WEEK 12,7,2025-06-23,84
STUDY001,VS,STUDY001-SUBJ0034,34,BP,Blood Pressure,115/82,mmHg,115/82,,mmHg,,WEEK 12,7,2025-06-23,84
STUDY001,VS,STUDY001-SUBJ0034,35,HR,Heart Rate,75,beats/min,75,75.0,beats/min,,WEEK 12,7,2025-06-23,84
STUDY001,VS,STUDY001-SUBJ0034,36,HEIGHT,Height,156.9,cm,156.9,156.9,cm,,WEEK 16,8,2025-07-21,112
STUDY001,VS,STUDY001-SUBJ0034,37,WEIGHT,Weight,83.3,kg,83.3,83.3,kg,,WEEK 16,8,2025-07-21,112
STUDY001,VS,STUDY001-SUBJ0034,38,TEMP,Temperature,36.1,C,36.1,36.1,C,,WEEK 16,8,2025-07-21,112
STUDY001,VS,STUDY001-SUBJ0034,39,BP,Blood Pressure,114/81,mmHg,114/81,,mmHg,,WEEK 16,8,2025-07-21,112
STUDY001,VS,STUDY001-SUBJ0034,40,HR,Heart Rate,66,beats/min,66,66.0,beats/min,,WEEK 16,8,2025-07-21,112
STUDY001,VS,STUDY001-SUBJ0034,41,HEIGHT,Height,157.1,cm,157.1,157.1,cm,,END OF TREATMENT,9,2025-08-18,140
STUDY001,VS,STUDY001-SUBJ0034,42,WEIGHT,Weight,84.0,kg,84.0,84.0,kg,,END OF TREATMENT,9,2025-08-18,140
STUDY001,VS,STUDY001-SUBJ0034,43,TEMP,Temperature,36.2,C,36.2,36.2,C,,END OF TREATMENT,9,2025-08-18,140
STUDY001,VS,STUDY001-SUBJ0034,44,BP,Blood Pressure,114/74,mmHg,114/74,,mmHg,,END OF TREATMENT,9,2025-08-18,140
STUDY001,VS,STUDY001-SUBJ0034,45,HR,Heart Rate,72,beats/min,72,72.0,beats/min,,END OF TREATMENT,9,2025-08-18,140
STUDY001,VS,STUDY001-SUBJ0035,1,HEIGHT,Height,189.9,cm,189.9,189.9,cm,,SCREENING,1,2025-09-16,-14
STUDY001,VS,STUDY001-SUBJ0035,2,WEIGHT,Weight,101.3,kg,101.3,101.3,kg,,SCREENING,1,2025-09-16,-14
STUDY001,VS,STUDY001-SUBJ0035,3,TEMP,Temperature,36.3,C,36.3,36.3,C,,SCREENING,1,2025-09-16,-14
STUDY001,VS,STUDY001-SUBJ0035,4,BP,Blood Pressure,106/89,mmHg,106/89,,mmHg,,SCREENING,1,2025-09-16,-14
STUDY001,VS,STUDY001-SUBJ0035,5,HR,Heart Rate,88,beats/min,88,88.0,beats/min,,SCREENING,1,2025-09-16,-14
STUDY001,VS,STUDY001-SUBJ0035,6,HEIGHT,Height,189.7,cm,189.7,189.7,cm,Y,BASELINE,2,2025-09-30,1
STUDY001,VS,STUDY001-SUBJ0035,7,WEIGHT,Weight,101.6,kg,101.6,101.6,kg,Y,BASELINE,2,2025-09-30,1
STUDY001,VS,STUDY001-SUBJ0035,8,TEMP,Temperature,36.1,C,36.1,36.1,C,Y,BASELINE,2,2025-09-30,1
STUDY001,VS,STUDY001-SUBJ0035,9,BP,Blood Pressure,104/92,mmHg,104/92,,mmHg,Y,BASELINE,2,2025-09-30,1
STUDY001,VS,STUDY001-SUBJ0035,10,HR,Heart Rate,89,beats/min,89,89.0,beats/min,Y,BASELINE,2,2025-09-30,1
STUDY001,VS,STUDY001-SUBJ0035,11,HEIGHT,Height,189.7,cm,189.7,189.7,cm,,WEEK 1,3,2025-10-06,7
STUDY001,VS,STUDY001-SUBJ0035,12,WEIGHT,Weight,102.6,kg,102.6,102.6,kg,,WEEK 1,3,2025-10-06,7
STUDY001,VS,STUDY001-SUBJ0035,13,TEMP,Temperature,36.1,C,36.1,36.1,C,,WEEK 1,3,2025-10-06,7
STUDY001,VS,STUDY001-SUBJ0035,14,BP,Blood Pressure,97/89,mmHg,97/89,,mmHg,,WEEK 1,3,2025-10-06,7
STUDY001,VS,STUDY001-SUBJ0035,15,HR,Heart Rate,89,beats/min,89,89.0,beats/min,,WEEK 1,3,2025-10-06,7
STUDY001,VS,STUDY001-SUBJ0035,16,HEIGHT,Height,189.7,cm,189.7,189.7,cm,,WEEK 2,4,2025-10-13,14
STUDY001,VS,STUDY001-SUBJ0035,17,WEIGHT,Weight,101.9,kg,101.9,101.9,kg,,WEEK 2,4,2025-10-13,14
STUDY001,VS,STUDY001-SUBJ0035,18,TEMP,Temperature,36.1,C,36.1,36.1,C,,WEEK 2,4,2025-10-13,14
STUDY001,VS,STUDY001-SUBJ0035,19,BP,Blood Pressure,105/86,mmHg,105/86,,mmHg,,WEEK 2,4,2025-10-13,14
STUDY001,VS,STUDY001-SUBJ0035,20,HR,Heart Rate,84,beats/min,84,84.0,beats/min,,WEEK 2,4,2025-10-13,14
STUDY001,VS,STUDY001-SUBJ0035,21,HEIGHT,Height,190.0,cm,190.0,190.0,cm,,WEEK 4,5,2025-10-27,28
STUDY001,VS,STUDY001-SUBJ0035,22,WEIGHT,Weight,102.1,kg,102.1,102.1,kg,,WEEK 4,5,2025-10-27,28
STUDY001,VS,STUDY001-SUBJ0035,23,TEMP,Temperature,36.1,C,36.1,36.1,C,,WEEK 4,5,2025-10-27,28
STUDY001,VS,STUDY001-SUBJ0035,24,BP,Blood Pressure,98/86,mmHg,98/86,,mmHg,,WEEK 4,5,2025-10-27,28
STUDY001,VS,STUDY001-SUBJ0035,25,HR,Heart Rate,90,beats/min,90,90.0,beats/min,,WEEK 4,5,2025-10-27,28
STUDY001,VS,STUDY001-SUBJ0035,26,HEIGHT,Height,189.9,cm,189.9,189.9,cm,,WEEK 8,6,2025-11-24,56
STUDY001,VS,STUDY001-SUBJ0035,27,WEIGHT,Weight,102.5,kg,102.5,102.5,kg,,WEEK 8,6,2025-11-24,56
STUDY001,VS,STUDY001-SUBJ0035,28,TEMP,Temperature,36.2,C,36.2,36.2,C,,WEEK 8,6,2025-11-24,56
STUDY001,VS,STUDY001-SUBJ0035,29,BP,Blood Pressure,101/90,mmHg,101/90,,mmHg,,WEEK 8,6,2025-11-24,56
STUDY001,VS,STUDY001-SUBJ0035,30,HR,Heart Rate,87,beats/min,87,87.0,beats/min,,WEEK 8,6,2025-11-24,56
STUDY001,VS,STUDY001-SUBJ0035,31,HEIGHT,Height,189.8,cm,189.8,189.8,cm,,WEEK 12,7,2025-12-22,84
STUDY001,VS,STUDY001-SUBJ0035,32,WEIGHT,Weight,102.7,kg,102.7,102.7,kg,,WEEK 12,7,2025-12-22,84
STUDY001,VS,STUDY001-SUBJ0035,33,TEMP,Temperature,36.4,C,36.4,36.4,C,,WEEK 12,7,2025-12-22,84
STUDY001,VS,STUDY001-SUBJ0035,34,BP,Blood Pressure,106/89,mmHg,106/89,,mmHg,,WEEK 12,7,2025-12-22,84
STUDY001,VS,STUDY001-SUBJ0035,35,HR,Heart Rate,83,beats/min,83,83.0,beats/min,,WEEK 12,7,2025-12-22,84
STUDY001,VS,STUDY001-SUBJ0035,36,HEIGHT,Height,190.0,cm,190.0,190.0,cm,,WEEK 16,8,2026-01-19,112
STUDY001,VS,STUDY001-SUBJ0035,37,WEIGHT,Weight,102.4,kg,102.4,102.4,kg,,WEEK 16,8,2026-01-19,112
STUDY001,VS,STUDY001-SUBJ0035,38,TEMP,Temperature,35.9,C,35.9,35.9,C,,WEEK 16,8,2026-01-19,112
STUDY001,VS,STUDY001-SUBJ0035,39,BP,Blood Pressure,105/94,mmHg,105/94,,mmHg,,WEEK 16,8,2026-01-19,112
STUDY001,VS,STUDY001-SUBJ0035,40,HR,Heart Rate,88,beats/min,88,88.0,beats/min,,WEEK 16,8,2026-01-19,112
STUDY001,VS,STUDY001-SUBJ0035,41,HEIGHT,Height,189.8,cm,189.8,189.8,cm,,END OF TREATMENT,9,2026-02-16,140
STUDY001,VS,STUDY001-SUBJ0035,42,WEIGHT,Weight,101.0,kg,101.0,101.0,kg,,END OF TREATMENT,9,2026-02-16,140
STUDY001,VS,STUDY001-SUBJ0035,43,TEMP,Temperature,35.9,C,35.9,35.9,C,,END OF TREATMENT,9,2026-02-16,140
STUDY001,VS,STUDY001-SUBJ0035,44,BP,Blood Pressure,104/94,mmHg,104/94,,mmHg,,END OF TREATMENT,9,2026-02-16,140
STUDY001,VS,STUDY001-SUBJ0035,45,HR,Heart Rate,82,beats/min,82,82.0,beats/min,,END OF TREATMENT,9,2026-02-16,140
STUDY001,VS,STUDY001-SUBJ0036,1,HEIGHT,Height,183.4,cm,183.4,183.4,cm,,SCREENING,1,2025-09-21,-14
STUDY001,VS,STUDY001-SUBJ0036,2,WEIGHT,Weight,111.8,kg,111.8,111.8,kg,,SCREENING,1,2025-09-21,-14
STUDY001,VS,STUDY001-SUBJ0036,3,TEMP,Temperature,36.3,C,36.3,36.3,C,,SCREENING,1,2025-09-21,-14
STUDY001,VS,STUDY001-SUBJ0036,4,BP,Blood Pressure,100/73,mmHg,100/73,,mmHg,,SCREENING,1,2025-09-21,-14
STUDY001,VS,STUDY001-SUBJ0036,5,HR,Heart Rate,77,beats/min,77,77.0,beats/min,,SCREENING,1,2025-09-21,-14
STUDY001,VS,STUDY001-SUBJ0036,6,HEIGHT,Height,183.4,cm,183.4,183.4,cm,Y,BASELINE,2,2025-10-05,1
STUDY001,VS,STUDY001-SUBJ0036,7,WEIGHT,Weight,112.0,kg,112.0,112.0,kg,Y,BASELINE,2,2025-10-05,1
STUDY001,VS,STUDY001-SUBJ0036,8,TEMP,Temperature,36.7,C,36.7,36.7,C,Y,BASELINE,2,2025-10-05,1
STUDY001,VS,STUDY001-SUBJ0036,9,BP,Blood Pressure,102/70,mmHg,102/70,,mmHg,Y,BASELINE,2,2025-10-05,1
STUDY001,VS,STUDY001-SUBJ0036,10,HR,Heart Rate,78,beats/min,78,78.0,beats/min,Y,BASELINE,2,2025-10-05,1
STUDY001,VS,STUDY001-SUBJ0036,11,HEIGHT,Height,183.3,cm,183.3,183.3,cm,,WEEK 1,3,2025-10-11,7
STUDY001,VS,STUDY001-SUBJ0036,12,WEIGHT,Weight,112.0,kg,112.0,112.0,kg,,WEEK 1,3,2025-10-11,7
STUDY001,VS,STUDY001-SUBJ0036,13,TEMP,Temperature,36.7,C,36.7,36.7,C,,WEEK 1,3,2025-10-11,7
STUDY001,VS,STUDY001-SUBJ0036,14,BP,Blood Pressure,102/71,mmHg,102/71,,mmHg,,WEEK 1,3,2025-10-11,7
STUDY001,VS,STUDY001-SUBJ0036,15,HR,Heart Rate,76,beats/min,76,76.0,beats/min,,WEEK 1,3,2025-10-11,7
STUDY001,VS,STUDY001-SUBJ0036,16,HEIGHT,Height,183.5,cm,183.5,183.5,cm,,WEEK 2,4,2025-10-18,14
STUDY001,VS,STUDY001-SUBJ0036,17,WEIGHT,Weight,110.3,kg,110.3,110.3,kg,,WEEK 2,4,2025-10-18,14
STUDY001,VS,STUDY001-SUBJ0036,18,TEMP,Temperature,36.2,C,36.2,36.2,C,,WEEK 2,4,2025-10-18,14
STUDY001,VS,STUDY001-SUBJ0036,19,BP,Blood Pressure,107/75,mmHg,107/75,,mmHg,,WEEK 2,4,2025-10-18,14
STUDY001,VS,STUDY001-SUBJ0036,20,HR,Heart Rate,80,beats/min,80,80.0,beats/min,,WEEK 2,4,2025-10-18,14
STUDY001,VS,STUDY001-SUBJ0036,21,HEIGHT,Height,183.4,cm,183.4,183.4,cm,,WEEK 4,5,2025-11-01,28
STUDY001,VS,STUDY001-SUBJ0036,22,WEIGHT,Weight,111.6,kg,111.6,111.6,kg,,WEEK 4,5,2025-11-01,28
STUDY001,VS,STUDY001-SUBJ0036,23,TEMP,Temperature,36.6,C,36.6,36.6,C,,WEEK 4,5,2025-11-01,28
STUDY001,VS,STUDY001-SUBJ0036,24,BP,Blood Pressure,104/74,mmHg,104/74,,mmHg,,WEEK 4,5,2025-11-01,28
STUDY001,VS,STUDY001-SUBJ0036,25,HR,Heart Rate,74,beats/min,74,74.0,beats/min,,WEEK 4,5,2025-11-01,28
STUDY001,VS,STUDY001-SUBJ0036,26,HEIGHT,Height,183.4,cm,183.4,183.4,cm,,WEEK 8,6,2025-11-29,56
STUDY001,VS,STUDY001-SUBJ0036,27,WEIGHT,Weight,111.4,kg,111.4,111.4,kg,,WEEK 8,6,2025-11-29,56
STUDY001,VS,STUDY001-SUBJ0036,28,TEMP,Temperature,36.2,C,36.2,36.2,C,,WEEK 8,6,2025-11-29,56
STUDY001,VS,STUDY001-SUBJ0036,29,BP,Blood Pressure,101/75,mmHg,101/75,,mmHg,,WEEK 8,6,2025-11-29,56
STUDY001,VS,STUDY001-SUBJ0036,30,HR,Heart Rate,76,beats/min,76,76.0,beats/min,,WEEK 8,6,2025-11-29,56
STUDY001,VS,STUDY001-SUBJ0036,31,HEIGHT,Height,183.2,cm,183.2,183.2,cm,,WEEK 12,7,2025-12-27,84
STUDY001,VS,STUDY001-SUBJ0036,32,WEIGHT,Weight,110.4,kg,110.4,110.4,kg,,WEEK 12,7,2025-12-27,84
STUDY001,VS,STUDY001-SUBJ0036,33,TEMP,Temperature,36.7,C,36.7,36.7,C,,WEEK 12,7,2025-12-27,84
STUDY001,VS,STUDY001-SUBJ0036,34,BP,Blood Pressure,101/77,mmHg,101/77,,mmHg,,WEEK 12,7,2025-12-27,84
STUDY001,VS,STUDY001-SUBJ0036,35,HR,Heart Rate,75,beats/min,75,75.0,beats/min,,WEEK 12,7,2025-12-27,84
STUDY001,VS,STUDY001-SUBJ0036,36,HEIGHT,Height,183.4,cm,183.4,183.4,cm,,WEEK 16,8,2026-01-24,112
STUDY001,VS,STUDY001-SUBJ0036,37,WEIGHT,Weight,111.5,kg,111.5,111.5,kg,,WEEK 16,8,2026-01-24,112
STUDY001,VS,STUDY001-SUBJ0036,38,TEMP,Temperature,36.4,C,36.4,36.4,C,,WEEK 16,8,2026-01-24,112
STUDY001,VS,STUDY001-SUBJ0036,39,BP,Blood Pressure,105/75,mmHg,105/75,,mmHg,,WEEK 16,8,2026-01-24,112
STUDY001,VS,STUDY001-SUBJ0036,40,HR,Heart Rate,75,beats/min,75,75.0,beats/min,,WEEK 16,8,2026-01-24,112
STUDY001,VS,STUDY001-SUBJ0036,41,HEIGHT,Height,183.3,cm,183.3,183.3,cm,,END OF TREATMENT,9,2026-02-21,140
STUDY001,VS,STUDY001-SUBJ0036,42,WEIGHT,Weight,111.7,kg,111.7,111.7,kg,,END OF TREATMENT,9,2026-02-21,140
STUDY001,VS,STUDY001-SUBJ0036,43,TEMP,Temperature,36.3,C,36.3,36.3,C,,END OF TREATMENT,9,2026-02-21,140
STUDY001,VS,STUDY001-SUBJ0036,44,BP,Blood Pressure,105/75,mmHg,105/75,,mmHg,,END OF TREATMENT,9,2026-02-21,140
STUDY001,VS,STUDY001-SUBJ0036,45,HR,Heart Rate,74,beats/min,74,74.0,beats/min,,END OF TREATMENT,9,2026-02-21,140
STUDY001,VS,STUDY001-SUBJ0037,1,HEIGHT,Height,162.0,cm,162.0,162.0,cm,,SCREENING,1,2025-02-22,-14
STUDY001,VS,STUDY001-SUBJ0037,2,WEIGHT,Weight,54.7,kg,54.7,54.7,kg,,SCREENING,1,2025-02-22,-14
STUDY001,VS,STUDY001-SUBJ0037,3,TEMP,Temperature,36.9,C,36.9,36.9,C,,SCREENING,1,2025-02-22,-14
STUDY001,VS,STUDY001-SUBJ0037,4,BP,Blood Pressure,143/93,mmHg,143/93,,mmHg,,SCREENING,1,2025-02-22,-14
STUDY001,VS,STUDY001-SUBJ0037,5,HR,Heart Rate,89,beats/min,89,89.0,beats/min,,SCREENING,1,2025-02-22,-14
STUDY001,VS,STUDY001-SUBJ0037,6,HEIGHT,Height,162.2,cm,162.2,162.2,cm,Y,BASELINE,2,2025-03-08,1
STUDY001,VS,STUDY001-SUBJ0037,7,WEIGHT,Weight,55.7,kg,55.7,55.7,kg,Y,BASELINE,2,2025-03-08,1
STUDY001,VS,STUDY001-SUBJ0037,8,TEMP,Temperature,36.8,C,36.8,36.8,C,Y,BASELINE,2,2025-03-08,1
STUDY001,VS,STUDY001-SUBJ0037,9,BP,Blood Pressure,143/92,mmHg,143/92,,mmHg,Y,BASELINE,2,2025-03-08,1
STUDY001,VS,STUDY001-SUBJ0037,10,HR,Heart Rate,86,beats/min,86,86.0,beats/min,Y,BASELINE,2,2025-03-08,1
STUDY001,VS,STUDY001-SUBJ0037,11,HEIGHT,Height,162.0,cm,162.0,162.0,cm,,WEEK 1,3,2025-03-14,7
STUDY001,VS,STUDY001-SUBJ0037,12,WEIGHT,Weight,54.8,kg,54.8,54.8,kg,,WEEK 1,3,2025-03-14,7
STUDY001,VS,STUDY001-SUBJ0037,13,TEMP,Temperature,36.9,C,36.9,36.9,C,,WEEK 1,3,2025-03-14,7
STUDY001,VS,STUDY001-SUBJ0037,14,BP,Blood Pressure,143/94,mmHg,143/94,,mmHg,,WEEK 1,3,2025-03-14,7
STUDY001,VS,STUDY001-SUBJ0037,15,HR,Heart Rate,88,beats/min,88,88.0,beats/min,,WEEK 1,3,2025-03-14,7
STUDY001,VS,STUDY001-SUBJ0037,16,HEIGHT,Height,161.8,cm,161.8,161.8,cm,,WEEK 2,4,2025-03-21,14
STUDY001,VS,STUDY001-SUBJ0037,17,WEIGHT,Weight,55.4,kg,55.4,55.4,kg,,WEEK 2,4,2025-03-21,14
STUDY001,VS,STUDY001-SUBJ0037,18,TEMP,Temperature,36.9,C,36.9,36.9,C,,WEEK 2,4,2025-03-21,14
STUDY001,VS,STUDY001-SUBJ0037,19,BP,Blood Pressure,149/88,mmHg,149/88,,mmHg,,WEEK 2,4,2025-03-21,14
STUDY001,VS,STUDY001-SUBJ0037,20,HR,Heart Rate,89,beats/min,89,89.0,beats/min,,WEEK 2,4,2025-03-21,14
STUDY001,VS,STUDY001-SUBJ0037,21,HEIGHT,Height,161.9,cm,161.9,161.9,cm,,WEEK 4,5,2025-04-04,28
STUDY001,VS,STUDY001-SUBJ0037,22,WEIGHT,Weight,55.2,kg,55.2,55.2,kg,,WEEK 4,5,2025-04-04,28
STUDY001,VS,STUDY001-SUBJ0037,23,TEMP,Temperature,36.7,C,36.7,36.7,C,,WEEK 4,5,2025-04-04,28
STUDY001,VS,STUDY001-SUBJ0037,24,BP,Blood Pressure,144/96,mmHg,144/96,,mmHg,,WEEK 4,5,2025-04-04,28
STUDY001,VS,STUDY001-SUBJ0037,25,HR,Heart Rate,81,beats/min,81,81.0,beats/min,,WEEK 4,5,2025-04-04,28
STUDY001,VS,STUDY001-SUBJ0037,26,HEIGHT,Height,162.2,cm,162.2,162.2,cm,,WEEK 8,6,2025-05-02,56
STUDY001,VS,STUDY001-SUBJ0037,27,WEIGHT,Weight,55.8,kg,55.8,55.8,kg,,WEEK 8,6,2025-05-02,56
STUDY001,VS,STUDY001-SUBJ0037,28,TEMP,Temperature,36.5,C,36.5,36.5,C,,WEEK 8,6,2025-05-02,56
STUDY001,VS,STUDY001-SUBJ0037,29,BP,Blood Pressure,144/90,mmHg,144/90,,mmHg,,WEEK 8,6,2025-05-02,56
STUDY001,VS,STUDY001-SUBJ0037,30,HR,Heart Rate,81,beats/min,81,81.0,beats/min,,WEEK 8,6,2025-05-02,56
STUDY001,VS,STUDY001-SUBJ0037,31,HEIGHT,Height,162.2,cm,162.2,162.2,cm,,WEEK 12,7,2025-05-30,84
STUDY001,VS,STUDY001-SUBJ0037,32,WEIGHT,Weight,54.8,kg,54.8,54.8,kg,,WEEK 12,7,2025-05-30,84
STUDY001,VS,STUDY001-SUBJ0037,33,TEMP,Temperature,36.6,C,36.6,36.6,C,,WEEK 12,7,2025-05-30,84
STUDY001,VS,STUDY001-SUBJ0037,34,BP,Blood Pressure,146/88,mmHg,146/88,,mmHg,,WEEK 12,7,2025-05-30,84
STUDY001,VS,STUDY001-SUBJ0037,35,HR,Heart Rate,84,beats/min,84,84.0,beats/min,,WEEK 12,7,2025-05-30,84
STUDY001,VS,STUDY001-SUBJ0037,36,HEIGHT,Height,162.0,cm,162.0,162.0,cm,,WEEK 16,8,2025-06-27,112
STUDY001,VS,STUDY001-SUBJ0037,37,WEIGHT,Weight,54.8,kg,54.8,54.8,kg,,WEEK 16,8,2025-06-27,112
STUDY001,VS,STUDY001-SUBJ0037,38,TEMP,Temperature,36.9,C,36.9,36.9,C,,WEEK 16,8,2025-06-27,112
STUDY001,VS,STUDY001-SUBJ0037,39,BP,Blood Pressure,143/89,mmHg,143/89,,mmHg,,WEEK 16,8,2025-06-27,112
STUDY001,VS,STUDY001-SUBJ0037,40,HR,Heart Rate,81,beats/min,81,81.0,beats/min,,WEEK 16,8,2025-06-27,112
STUDY001,VS,STUDY001-SUBJ0037,41,HEIGHT,Height,162.1,cm,162.1,162.1,cm,,END OF TREATMENT,9,2025-07-25,140
STUDY001,VS,STUDY001-SUBJ0037,42,WEIGHT,Weight,54.8,kg,54.8,54.8,kg,,END OF TREATMENT,9,2025-07-25,140
STUDY001,VS,STUDY001-SUBJ0037,43,TEMP,Temperature,36.8,C,36.8,36.8,C,,END OF TREATMENT,9,2025-07-25,140
STUDY001,VS,STUDY001-SUBJ0037,44,BP,Blood Pressure,149/89,mmHg,149/89,,mmHg,,END OF TREATMENT,9,2025-07-25,140
STUDY001,VS,STUDY001-SUBJ0037,45,HR,Heart Rate,84,beats/min,84,84.0,beats/min,,END OF TREATMENT,9,2025-07-25,140
STUDY001,VS,STUDY001-SUBJ0038,1,HEIGHT,Height,181.8,cm,181.8,181.8,cm,,SCREENING,1,2025-09-12,-14
STUDY001,VS,STUDY001-SUBJ0038,2,WEIGHT,Weight,103.0,kg,103.0,103.0,kg,,SCREENING,1,2025-09-12,-14
STUDY001,VS,STUDY001-SUBJ0038,3,TEMP,Temperature,36.5,C,36.5,36.5,C,,SCREENING,1,2025-09-12,-14
STUDY001,VS,STUDY001-SUBJ0038,4,BP,Blood Pressure,143/73,mmHg,143/73,,mmHg,,SCREENING,1,2025-09-12,-14
STUDY001,VS,STUDY001-SUBJ0038,5,HR,Heart Rate,71,beats/min,71,71.0,beats/min,,SCREENING,1,2025-09-12,-14
STUDY001,VS,STUDY001-SUBJ0038,6,HEIGHT,Height,181.7,cm,181.7,181.7,cm,Y,BASELINE,2,2025-09-26,1
STUDY001,VS,STUDY001-SUBJ0038,7,WEIGHT,Weight,102.9,kg,102.9,102.9,kg,Y,BASELINE,2,2025-09-26,1
STUDY001,VS,STUDY001-SUBJ0038,8,TEMP,Temperature,36.4,C,36.4,36.4,C,Y,BASELINE,2,2025-09-26,1
STUDY001,VS,STUDY001-SUBJ0038,9,BP,Blood Pressure,134/77,mmHg,134/77,,mmHg,Y,BASELINE,2,2025-09-26,1
STUDY001,VS,STUDY001-SUBJ0038,10,HR,Heart Rate,69,beats/min,69,69.0,beats/min,Y,BASELINE,2,2025-09-26,1
STUDY001,VS,STUDY001-SUBJ0038,11,HEIGHT,Height,181.7,cm,181.7,181.7,cm,,WEEK 1,3,2025-10-02,7
STUDY001,VS,STUDY001-SUBJ0038,12,WEIGHT,Weight,101.9,kg,101.9,101.9,kg,,WEEK 1,3,2025-10-02,7
STUDY001,VS,STUDY001-SUBJ0038,13,TEMP,Temperature,36.5,C,36.5,36.5,C,,WEEK 1,3,2025-10-02,7
STUDY001,VS,STUDY001-SUBJ0038,14,BP,Blood Pressure,134/70,mmHg,134/70,,mmHg,,WEEK 1,3,2025-10-02,7
STUDY001,VS,STUDY001-SUBJ0038,15,HR,Heart Rate,66,beats/min,66,66.0,beats/min,,WEEK 1,3,2025-10-02,7
STUDY001,VS,STUDY001-SUBJ0038,16,HEIGHT,Height,181.7,cm,181.7,181.7,cm,,WEEK 2,4,2025-10-09,14
STUDY001,VS,STUDY001-SUBJ0038,17,WEIGHT,Weight,101.9,kg,101.9,101.9,kg,,WEEK 2,4,2025-10-09,14
STUDY001,VS,STUDY001-SUBJ0038,18,TEMP,Temperature,36.3,C,36.3,36.3,C,,WEEK 2,4,2025-10-09,14
STUDY001,VS,STUDY001-SUBJ0038,19,BP,Blood Pressure,134/76,mmHg,134/76,,mmHg,,WEEK 2,4,2025-10-09,14
STUDY001,VS,STUDY001-SUBJ0038,20,HR,Heart Rate,67,beats/min,67,67.0,beats/min,,WEEK 2,4,2025-10-09,14
STUDY001,VS,STUDY001-SUBJ0038,21,HEIGHT,Height,181.7,cm,181.7,181.7,cm,,WEEK 4,5,2025-10-23,28
STUDY001,VS,STUDY001-SUBJ0038,22,WEIGHT,Weight,102.1,kg,102.1,102.1,kg,,WEEK 4,5,2025-10-23,28
STUDY001,VS,STUDY001-SUBJ0038,23,TEMP,Temperature,36.1,C,36.1,36.1,C,,WEEK 4,5,2025-10-23,28
STUDY001,VS,STUDY001-SUBJ0038,24,BP,Blood Pressure,138/73,mmHg,138/73,,mmHg,,WEEK 4,5,2025-10-23,28
STUDY001,VS,STUDY001-SUBJ0038,25,HR,Heart Rate,69,beats/min,69,69.0,beats/min,,WEEK 4,5,2025-10-23,28
STUDY001,VS,STUDY001-SUBJ0038,26,HEIGHT,Height,181.9,cm,181.9,181.9,cm,,WEEK 8,6,2025-11-20,56
STUDY001,VS,STUDY001-SUBJ0038,27,WEIGHT,Weight,103.5,kg,103.5,103.5,kg,,WEEK 8,6,2025-11-20,56
STUDY001,VS,STUDY001-SUBJ0038,28,TEMP,Temperature,36.3,C,36.3,36.3,C,,WEEK 8,6,2025-11-20,56
STUDY001,VS,STUDY001-SUBJ0038,29,BP,Blood Pressure,140/78,mmHg,140/78,,mmHg,,WEEK 8,6,2025-11-20,56
STUDY001,VS,STUDY001-SUBJ0038,30,HR,Heart Rate,71,beats/min,71,71.0,beats/min,,WEEK 8,6,2025-11-20,56
STUDY001,VS,STUDY001-SUBJ0038,31,HEIGHT,Height,181.8,cm,181.8,181.8,cm,,WEEK 12,7,2025-12-18,84
STUDY001,VS,STUDY001-SUBJ0038,32,WEIGHT,Weight,102.5,kg,102.5,102.5,kg,,WEEK 12,7,2025-12-18,84
STUDY001,VS,STUDY001-SUBJ0038,33,TEMP,Temperature,36.3,C,36.3,36.3,C,,WEEK 12,7,2025-12-18,84
STUDY001,VS,STUDY001-SUBJ0038,34,BP,Blood Pressure,137/72,mmHg,137/72,,mmHg,,WEEK 12,7,2025-12-18,84
STUDY001,VS,STUDY001-SUBJ0038,35,HR,Heart Rate,66,beats/min,66,66.0,beats/min,,WEEK 12,7,2025-12-18,84
STUDY001,VS,STUDY001-SUBJ0038,36,HEIGHT,Height,181.8,cm,181.8,181.8,cm,,WEEK 16,8,2026-01-15,112
STUDY001,VS,STUDY001-SUBJ0038,37,WEIGHT,Weight,101.7,kg,101.7,101.7,kg,,WEEK 16,8,2026-01-15,112
STUDY001,VS,STUDY001-SUBJ0038,38,TEMP,Temperature,36.1,C,36.1,36.1,C,,WEEK 16,8,2026-01-15,112
STUDY001,VS,STUDY001-SUBJ0038,39,BP,Blood Pressure,135/74,mmHg,135/74,,mmHg,,WEEK 16,8,2026-01-15,112
STUDY001,VS,STUDY001-SUBJ0038,40,HR,Heart Rate,62,beats/min,62,62.0,beats/min,,WEEK 16,8,2026-01-15,112
STUDY001,VS,STUDY001-SUBJ0038,41,HEIGHT,Height,182.0,cm,182.0,182.0,cm,,END OF TREATMENT,9,2026-02-12,140
STUDY001,VS,STUDY001-SUBJ0038,42,WEIGHT,Weight,101.7,kg,101.7,101.7,kg,,END OF TREATMENT,9,2026-02-12,140
STUDY001,VS,STUDY001-SUBJ0038,43,TEMP,Temperature,36.1,C,36.1,36.1,C,,END OF TREATMENT,9,2026-02-12,140
STUDY001,VS,STUDY001-SUBJ0038,44,BP,Blood Pressure,138/75,mmHg,138/75,,mmHg,,END OF TREATMENT,9,2026-02-12,140
STUDY001,VS,STUDY001-SUBJ0038,45,HR,Heart Rate,71,beats/min,71,71.0,beats/min,,END OF TREATMENT,9,2026-02-12,140
STUDY001,VS,STUDY001-SUBJ0039,1,HEIGHT,Height,151.2,cm,151.2,151.2,cm,,SCREENING,1,2025-06-12,-14
STUDY001,VS,STUDY001-SUBJ0039,2,WEIGHT,Weight,92.7,kg,92.7,92.7,kg,,SCREENING,1,2025-06-12,-14
STUDY001,VS,STUDY001-SUBJ0039,3,TEMP,Temperature,36.6,C,36.6,36.6,C,,SCREENING,1,2025-06-12,-14
STUDY001,VS,STUDY001-SUBJ0039,4,BP,Blood Pressure,123/83,mmHg,123/83,,mmHg,,SCREENING,1,2025-06-12,-14
STUDY001,VS,STUDY001-SUBJ0039,5,HR,Heart Rate,76,beats/min,76,76.0,beats/min,,SCREENING,1,2025-06-12,-14
STUDY001,VS,STUDY001-SUBJ0039,6,HEIGHT,Height,151.1,cm,151.1,151.1,cm,Y,BASELINE,2,2025-06-26,1
STUDY001,VS,STUDY001-SUBJ0039,7,WEIGHT,Weight,92.7,kg,92.7,92.7,kg,Y,BASELINE,2,2025-06-26,1
STUDY001,VS,STUDY001-SUBJ0039,8,TEMP,Temperature,36.4,C,36.4,36.4,C,Y,BASELINE,2,2025-06-26,1
STUDY001,VS,STUDY001-SUBJ0039,9,BP,Blood Pressure,117/83,mmHg,117/83,,mmHg,Y,BASELINE,2,2025-06-26,1
STUDY001,VS,STUDY001-SUBJ0039,10,HR,Heart Rate,69,beats/min,69,69.0,beats/min,Y,BASELINE,2,2025-06-26,1
STUDY001,VS,STUDY001-SUBJ0039,11,HEIGHT,Height,151.3,cm,151.3,151.3,cm,,WEEK 1,3,2025-07-02,7
STUDY001,VS,STUDY001-SUBJ0039,12,WEIGHT,Weight,92.2,kg,92.2,92.2,kg,,WEEK 1,3,2025-07-02,7
STUDY001,VS,STUDY001-SUBJ0039,13,TEMP,Temperature,36.4,C,36.4,36.4,C,,WEEK 1,3,2025-07-02,7
STUDY001,VS,STUDY001-SUBJ0039,14,BP,Blood Pressure,117/82,mmHg,117/82,,mmHg,,WEEK 1,3,2025-07-02,7
STUDY001,VS,STUDY001-SUBJ0039,15,HR,Heart Rate,71,beats/min,71,71.0,beats/min,,WEEK 1,3,2025-07-02,7
STUDY001,VS,STUDY001-SUBJ0039,16,HEIGHT,Height,151.3,cm,151.3,151.3,cm,,WEEK 2,4,2025-07-09,14
STUDY001,VS,STUDY001-SUBJ0039,17,WEIGHT,Weight,92.2,kg,92.2,92.2,kg,,WEEK 2,4,2025-07-09,14
STUDY001,VS,STUDY001-SUBJ0039,18,TEMP,Temperature,36.7,C,36.7,36.7,C,,WEEK 2,4,2025-07-09,14
STUDY001,VS,STUDY001-SUBJ0039,19,BP,Blood Pressure,114/75,mmHg,114/75,,mmHg,,WEEK 2,4,2025-07-09,14
STUDY001,VS,STUDY001-SUBJ0039,20,HR,Heart Rate,76,beats/min,76,76.0,beats/min,,WEEK 2,4,2025-07-09,14
STUDY001,VS,STUDY001-SUBJ0039,21,HEIGHT,Height,151.1,cm,151.1,151.1,cm,,WEEK 4,5,2025-07-23,28
STUDY001,VS,STUDY001-SUBJ0039,22,WEIGHT,Weight,93.2,kg,93.2,93.2,kg,,WEEK 4,5,2025-07-23,28
STUDY001,VS,STUDY001-SUBJ0039,23,TEMP,Temperature,36.6,C,36.6,36.6,C,,WEEK 4,5,2025-07-23,28
STUDY001,VS,STUDY001-SUBJ0039,24,BP,Blood Pressure,115/74,mmHg,115/74,,mmHg,,WEEK 4,5,2025-07-23,28
STUDY001,VS,STUDY001-SUBJ0039,25,HR,Heart Rate,75,beats/min,75,75.0,beats/min,,WEEK 4,5,2025-07-23,28
STUDY001,VS,STUDY001-SUBJ0039,26,HEIGHT,Height,151.2,cm,151.2,151.2,cm,,WEEK 8,6,2025-08-20,56
STUDY001,VS,STUDY001-SUBJ0039,27,WEIGHT,Weight,91.9,kg,91.9,91.9,kg,,WEEK 8,6,2025-08-20,56
STUDY001,VS,STUDY001-SUBJ0039,28,TEMP,Temperature,36.5,C,36.5,36.5,C,,WEEK 8,6,2025-08-20,56
STUDY001,VS,STUDY001-SUBJ0039,29,BP,Blood Pressure,123/83,mmHg,123/83,,mmHg,,WEEK 8,6,2025-08-20,56
STUDY001,VS,STUDY001-SUBJ0039,30,HR,Heart Rate,70,beats/min,70,70.0,beats/min,,WEEK 8,6,2025-08-20,56
STUDY001,VS,STUDY001-SUBJ0039,31,HEIGHT,Height,151.1,cm,151.1,151.1,cm,,WEEK 12,7,2025-09-17,84
STUDY001,VS,STUDY001-SUBJ0039,32,WEIGHT,Weight,92.1,kg,92.1,92.1,kg,,WEEK 12,7,2025-09-17,84
STUDY001,VS,STUDY001-SUBJ0039,33,TEMP,Temperature,36.3,C,36.3,36.3,C,,WEEK 12,7,2025-09-17,84
STUDY001,VS,STUDY001-SUBJ0039,34,BP,Blood Pressure,122/79,mmHg,122/79,,mmHg,,WEEK 12,7,2025-09-17,84
STUDY001,VS,STUDY001-SUBJ0039,35,HR,Heart Rate,71,beats/min,71,71.0,beats/min,,WEEK 12,7,2025-09-17,84
STUDY001,VS,STUDY001-SUBJ0039,36,HEIGHT,Height,151.2,cm,151.2,151.2,cm,,WEEK 16,8,2025-10-15,112
STUDY001,VS,STUDY001-SUBJ0039,37,WEIGHT,Weight,93.5,kg,93.5,93.5,kg,,WEEK 16,8,2025-10-15,112
STUDY001,VS,STUDY001-SUBJ0039,38,TEMP,Temperature,36.3,C,36.3,36.3,C,,WEEK 16,8,2025-10-15,112
STUDY001,VS,STUDY001-SUBJ0039,39,BP,Blood Pressure,119/81,mmHg,119/81,,mmHg,,WEEK 16,8,2025-10-15,112
STUDY001,VS,STUDY001-SUBJ0039,40,HR,Heart Rate,75,beats/min,75,75.0,beats/min,,WEEK 16,8,2025-10-15,112
STUDY001,VS,STUDY001-SUBJ0039,41,HEIGHT,Height,151.2,cm,151.2,151.2,cm,,END OF TREATMENT,9,2025-11-12,140
STUDY001,VS,STUDY001-SUBJ0039,42,WEIGHT,Weight,92.0,kg,92.0,92.0,kg,,END OF TREATMENT,9,2025-11-12,140
STUDY001,VS,STUDY001-SUBJ0039,43,TEMP,Temperature,36.4,C,36.4,36.4,C,,END OF TREATMENT,9,2025-11-12,140
STUDY001,VS,STUDY001-SUBJ0039,44,BP,Blood Pressure,119/79,mmHg,119/79,,mmHg,,END OF TREATMENT,9,2025-11-12,140
STUDY001,VS,STUDY001-SUBJ0039,45,HR,Heart Rate,68,beats/min,68,68.0,beats/min,,END OF TREATMENT,9,2025-11-12,140
STUDY001,VS,STUDY001-SUBJ0040,1,HEIGHT,Height,169.8,cm,169.8,169.8,cm,,SCREENING,1,2025-02-13,-14
STUDY001,VS,STUDY001-SUBJ0040,2,WEIGHT,Weight,109.1,kg,109.1,109.1,kg,,SCREENING,1,2025-02-13,-14
STUDY001,VS,STUDY001-SUBJ0040,3,TEMP,Temperature,36.8,C,36.8,36.8,C,,SCREENING,1,2025-02-13,-14
STUDY001,VS,STUDY001-SUBJ0040,4,BP,Blood Pressure,108/89,mmHg,108/89,,mmHg,,SCREENING,1,2025-02-13,-14
STUDY001,VS,STUDY001-SUBJ0040,5,HR,Heart Rate,64,beats/min,64,64.0,beats/min,,SCREENING,1,2025-02-13,-14
STUDY001,VS,STUDY001-SUBJ0040,6,HEIGHT,Height,169.7,cm,169.7,169.7,cm,Y,BASELINE,2,2025-02-27,1
STUDY001,VS,STUDY001-SUBJ0040,7,WEIGHT,Weight,110.4,kg,110.4,110.4,kg,Y,BASELINE,2,2025-02-27,1
STUDY001,VS,STUDY001-SUBJ0040,8,TEMP,Temperature,36.8,C,36.8,36.8,C,Y,BASELINE,2,2025-02-27,1
STUDY001,VS,STUDY001-SUBJ0040,9,BP,Blood Pressure,107/93,mmHg,107/93,,mmHg,Y,BASELINE,2,2025-02-27,1
STUDY001,VS,STUDY001-SUBJ0040,10,HR,Heart Rate,61,beats/min,61,61.0,beats/min,Y,BASELINE,2,2025-02-27,1
STUDY001,VS,STUDY001-SUBJ0040,11,HEIGHT,Height,169.6,cm,169.6,169.6,cm,,WEEK 1,3,2025-03-05,7
STUDY001,VS,STUDY001-SUBJ0040,12,WEIGHT,Weight,108.8,kg,108.8,108.8,kg,,WEEK 1,3,2025-03-05,7
STUDY001,VS,STUDY001-SUBJ0040,13,TEMP,Temperature,36.8,C,36.8,36.8,C,,WEEK 1,3,2025-03-05,7
STUDY001,VS,STUDY001-SUBJ0040,14,BP,Blood Pressure,107/96,mmHg,107/96,,mmHg,,WEEK 1,3,2025-03-05,7
STUDY001,VS,STUDY001-SUBJ0040,15,HR,Heart Rate,58,beats/min,58,58.0,beats/min,,WEEK 1,3,2025-03-05,7
STUDY001,VS,STUDY001-SUBJ0040,16,HEIGHT,Height,169.7,cm,169.7,169.7,cm,,WEEK 2,4,2025-03-12,14
STUDY001,VS,STUDY001-SUBJ0040,17,WEIGHT,Weight,110.2,kg,110.2,110.2,kg,,WEEK 2,4,2025-03-12,14
STUDY001,VS,STUDY001-SUBJ0040,18,TEMP,Temperature,36.9,C,36.9,36.9,C,,WEEK 2,4,2025-03-12,14
STUDY001,VS,STUDY001-SUBJ0040,19,BP,Blood Pressure,108/93,mmHg,108/93,,mmHg,,WEEK 2,4,2025-03-12,14
STUDY001,VS,STUDY001-SUBJ0040,20,HR,Heart Rate,60,beats/min,60,60.0,beats/min,,WEEK 2,4,2025-03-12,14
STUDY001,VS,STUDY001-SUBJ0040,21,HEIGHT,Height,169.7,cm,169.7,169.7,cm,,WEEK 4,5,2025-03-26,28
STUDY001,VS,STUDY001-SUBJ0040,22,WEIGHT,Weight,109.9,kg,109.9,109.9,kg,,WEEK 4,5,2025-03-26,28
STUDY001,VS,STUDY001-SUBJ0040,23,TEMP,Temperature,36.8,C,36.8,36.8,C,,WEEK 4,5,2025-03-26,28
STUDY001,VS,STUDY001-SUBJ0040,24,BP,Blood Pressure,106/90,mmHg,106/90,,mmHg,,WEEK 4,5,2025-03-26,28
STUDY001,VS,STUDY001-SUBJ0040,25,HR,Heart Rate,57,beats/min,57,57.0,beats/min,,WEEK 4,5,2025-03-26,28
STUDY001,VS,STUDY001-SUBJ0040,26,HEIGHT,Height,169.7,cm,169.7,169.7,cm,,WEEK 8,6,2025-04-23,56
STUDY001,VS,STUDY001-SUBJ0040,27,WEIGHT,Weight,109.9,kg,109.9,109.9,kg,,WEEK 8,6,2025-04-23,56
STUDY001,VS,STUDY001-SUBJ0040,28,TEMP,Temperature,37.1,C,37.1,37.1,C,,WEEK 8,6,2025-04-23,56
STUDY001,VS,STUDY001-SUBJ0040,29,BP,Blood Pressure,111/89,mmHg,111/89,,mmHg,,WEEK 8,6,2025-04-23,56
STUDY001,VS,STUDY001-SUBJ0040,30,HR,Heart Rate,57,beats/min,57,57.0,beats/min,,WEEK 8,6,2025-04-23,56
STUDY001,VS,STUDY001-SUBJ0040,31,HEIGHT,Height,169.7,cm,169.7,169.7,cm,,WEEK 12,7,2025-05-21,84
STUDY001,VS,STUDY001-SUBJ0040,32,WEIGHT,Weight,109.9,kg,109.9,109.9,kg,,WEEK 12,7,2025-05-21,84
STUDY001,VS,STUDY001-SUBJ0040,33,TEMP,Temperature,36.7,C,36.7,36.7,C,,WEEK 12,7,2025-05-21,84
STUDY001,VS,STUDY001-SUBJ0040,34,BP,Blood Pressure,106/88,mmHg,106/88,,mmHg,,WEEK 12,7,2025-05-21,84
STUDY001,VS,STUDY001-SUBJ0040,35,HR,Heart Rate,63,beats/min,63,63.0,beats/min,,WEEK 12,7,2025-05-21,84
STUDY001,VS,STUDY001-SUBJ0040,36,HEIGHT,Height,169.7,cm,169.7,169.7,cm,,WEEK 16,8,2025-06-18,112
STUDY001,VS,STUDY001-SUBJ0040,37,WEIGHT,Weight,110.2,kg,110.2,110.2,kg,,WEEK 16,8,2025-06-18,112
STUDY001,VS,STUDY001-SUBJ0040,38,TEMP,Temperature,37.1,C,37.1,37.1,C,,WEEK 16,8,2025-06-18,112
STUDY001,VS,STUDY001-SUBJ0040,39,BP,Blood Pressure,108/90,mmHg,108/90,,mmHg,,WEEK 16,8,2025-06-18,112
STUDY001,VS,STUDY001-SUBJ0040,40,HR,Heart Rate,61,beats/min,61,61.0,beats/min,,WEEK 16,8,2025-06-18,112
STUDY001,VS,STUDY001-SUBJ0040,41,HEIGHT,Height,169.9,cm,169.9,169.9,cm,,END OF TREATMENT,9,2025-07-16,140
STUDY001,VS,STUDY001-SUBJ0040,42,WEIGHT,Weight,109.0,kg,109.0,109.0,kg,,END OF TREATMENT,9,2025-07-16,140
STUDY001,VS,STUDY001-SUBJ0040,43,TEMP,Temperature,36.8,C,36.8,36.8,C,,END OF TREATMENT,9,2025-07-16,140
STUDY001,VS,STUDY001-SUBJ0040,44,BP,Blood Pressure,107/87,mmHg,107/87,,mmHg,,END OF TREATMENT,9,2025-07-16,140
STUDY001,VS,STUDY001-SUBJ0040,45,HR,Heart Rate,58,beats/min,58,58.0,beats/min,,END OF TREATMENT,9,2025-07-16,140
STUDY001,VS,STUDY001-SUBJ0041,1,HEIGHT,Height,150.7,cm,150.7,150.7,cm,,SCREENING,1,2025-04-17,-14
STUDY001,VS,STUDY001-SUBJ0041,2,WEIGHT,Weight,80.5,kg,80.5,80.5,kg,,SCREENING,1,2025-04-17,-14
STUDY001,VS,STUDY001-SUBJ0041,3,TEMP,Temperature,36.5,C,36.5,36.5,C,,SCREENING,1,2025-04-17,-14
STUDY001,VS,STUDY001-SUBJ0041,4,BP,Blood Pressure,102/78,mmHg,102/78,,mmHg,,SCREENING,1,2025-04-17,-14
STUDY001,VS,STUDY001-SUBJ0041,5,HR,Heart Rate,85,beats/min,85,85.0,beats/min,,SCREENING,1,2025-04-17,-14
STUDY001,VS,STUDY001-SUBJ0041,6,HEIGHT,Height,150.9,cm,150.9,150.9,cm,Y,BASELINE,2,2025-05-01,1
STUDY001,VS,STUDY001-SUBJ0041,7,WEIGHT,Weight,80.9,kg,80.9,80.9,kg,Y,BASELINE,2,2025-05-01,1
STUDY001,VS,STUDY001-SUBJ0041,8,TEMP,Temperature,36.0,C,36.0,36.0,C,Y,BASELINE,2,2025-05-01,1
STUDY001,VS,STUDY001-SUBJ0041,9,BP,Blood Pressure,105/79,mmHg,105/79,,mmHg,Y,BASELINE,2,2025-05-01,1
STUDY001,VS,STUDY001-SUBJ0041,10,HR,Heart Rate,83,beats/min,83,83.0,beats/min,Y,BASELINE,2,2025-05-01,1
STUDY001,VS,STUDY001-SUBJ0041,11,HEIGHT,Height,150.7,cm,150.7,150.7,cm,,WEEK 1,3,2025-05-07,7
STUDY001,VS,STUDY001-SUBJ0041,12,WEIGHT,Weight,80.9,kg,80.9,80.9,kg,,WEEK 1,3,2025-05-07,7
STUDY001,VS,STUDY001-SUBJ0041,13,TEMP,Temperature,36.4,C,36.4,36.4,C,,WEEK 1,3,2025-05-07,7
STUDY001,VS,STUDY001-SUBJ0041,14,BP,Blood Pressure,101/80,mmHg,101/80,,mmHg,,WEEK 1,3,2025-05-07,7
STUDY001,VS,STUDY001-SUBJ0041,15,HR,Heart Rate,92,beats/min,92,92.0,beats/min,,WEEK 1,3,2025-05-07,7
STUDY001,VS,STUDY001-SUBJ0041,16,HEIGHT,Height,150.9,cm,150.9,150.9,cm,,WEEK 2,4,2025-05-14,14
STUDY001,VS,STUDY001-SUBJ0041,17,WEIGHT,Weight,81.4,kg,81.4,81.4,kg,,WEEK 2,4,2025-05-14,14
STUDY001,VS,STUDY001-SUBJ0041,18,TEMP,Temperature,36.0,C,36.0,36.0,C,,WEEK 2,4,2025-05-14,14
STUDY001,VS,STUDY001-SUBJ0041,19,BP,Blood Pressure,109/78,mmHg,109/78,,mmHg,,WEEK 2,4,2025-05-14,14
STUDY001,VS,STUDY001-SUBJ0041,20,HR,Heart Rate,83,beats/min,83,83.0,beats/min,,WEEK 2,4,2025-05-14,14
STUDY001,VS,STUDY001-SUBJ0041,21,HEIGHT,Height,150.8,cm,150.8,150.8,cm,,WEEK 4,5,2025-05-28,28
STUDY001,VS,STUDY001-SUBJ0041,22,WEIGHT,Weight,79.9,kg,79.9,79.9,kg,,WEEK 4,5,2025-05-28,28
STUDY001,VS,STUDY001-SUBJ0041,23,TEMP,Temperature,36.5,C,36.5,36.5,C,,WEEK 4,5,2025-05-28,28
STUDY001,VS,STUDY001-SUBJ0041,24,BP,Blood Pressure,103/78,mmHg,103/78,,mmHg,,WEEK 4,5,2025-05-28,28
STUDY001,VS,STUDY001-SUBJ0041,25,HR,Heart Rate,89,beats/min,89,89.0,beats/min,,WEEK 4,5,2025-05-28,28
STUDY001,VS,STUDY001-SUBJ0041,26,HEIGHT,Height,150.9,cm,150.9,150.9,cm,,WEEK 8,6,2025-06-25,56
STUDY001,VS,STUDY001-SUBJ0041,27,WEIGHT,Weight,81.1,kg,81.1,81.1,kg,,WEEK 8,6,2025-06-25,56
STUDY001,VS,STUDY001-SUBJ0041,28,TEMP,Temperature,36.3,C,36.3,36.3,C,,WEEK 8,6,2025-06-25,56
STUDY001,VS,STUDY001-SUBJ0041,29,BP,Blood Pressure,105/83,mmHg,105/83,,mmHg,,WEEK 8,6,2025-06-25,56
STUDY001,VS,STUDY001-SUBJ0041,30,HR,Heart Rate,83,beats/min,83,83.0,beats/min,,WEEK 8,6,2025-06-25,56
STUDY001,VS,STUDY001-SUBJ0041,31,HEIGHT,Height,150.7,cm,150.7,150.7,cm,,WEEK 12,7,2025-07-23,84
STUDY001,VS,STUDY001-SUBJ0041,32,WEIGHT,Weight,81.6,kg,81.6,81.6,kg,,WEEK 12,7,2025-07-23,84
STUDY001,VS,STUDY001-SUBJ0041,33,TEMP,Temperature,36.5,C,36.5,36.5,C,,WEEK 12,7,2025-07-23,84
STUDY001,VS,STUDY001-SUBJ0041,34,BP,Blood Pressure,101/77,mmHg,101/77,,mmHg,,WEEK 12,7,2025-07-23,84
STUDY001,VS,STUDY001-SUBJ0041,35,HR,Heart Rate,88,beats/min,88,88.0,beats/min,,WEEK 12,7,2025-07-23,84
STUDY001,VS,STUDY001-SUBJ0041,36,HEIGHT,Height,150.6,cm,150.6,150.6,cm,,WEEK 16,8,2025-08-20,112
STUDY001,VS,STUDY001-SUBJ0041,37,WEIGHT,Weight,81.0,kg,81.0,81.0,kg,,WEEK 16,8,2025-08-20,112
STUDY001,VS,STUDY001-SUBJ0041,38,TEMP,Temperature,36.2,C,36.2,36.2,C,,WEEK 16,8,2025-08-20,112
STUDY001,VS,STUDY001-SUBJ0041,39,BP,Blood Pressure,106/82,mmHg,106/82,,mmHg,,WEEK 16,8,2025-08-20,112
STUDY001,VS,STUDY001-SUBJ0041,40,HR,Heart Rate,84,beats/min,84,84.0,beats/min,,WEEK 16,8,2025-08-20,112
STUDY001,VS,STUDY001-SUBJ0041,41,HEIGHT,Height,150.6,cm,150.6,150.6,cm,,END OF TREATMENT,9,2025-09-17,140
STUDY001,VS,STUDY001-SUBJ0041,42,WEIGHT,Weight,80.6,kg,80.6,80.6,kg,,END OF TREATMENT,9,2025-09-17,140
STUDY001,VS,STUDY001-SUBJ0041,43,TEMP,Temperature,36.1,C,36.1,36.1,C,,END OF TREATMENT,9,2025-09-17,140
STUDY001,VS,STUDY001-SUBJ0041,44,BP,Blood Pressure,101/76,mmHg,101/76,,mmHg,,END OF TREATMENT,9,2025-09-17,140
STUDY001,VS,STUDY001-SUBJ0041,45,HR,Heart Rate,91,beats/min,91,91.0,beats/min,,END OF TREATMENT,9,2025-09-17,140
STUDY001,VS,STUDY001-SUBJ0042,1,HEIGHT,Height,161.6,cm,161.6,161.6,cm,,SCREENING,1,2025-08-06,-14
STUDY001,VS,STUDY001-SUBJ0042,2,WEIGHT,Weight,114.6,kg,114.6,114.6,kg,,SCREENING,1,2025-08-06,-14
STUDY001,VS,STUDY001-SUBJ0042,3,TEMP,Temperature,36.5,C,36.5,36.5,C,,SCREENING,1,2025-08-06,-14
STUDY001,VS,STUDY001-SUBJ0042,4,BP,Blood Pressure,122/88,mmHg,122/88,,mmHg,,SCREENING,1,2025-08-06,-14
STUDY001,VS,STUDY001-SUBJ0042,5,HR,Heart Rate,72,beats/min,72,72.0,beats/min,,SCREENING,1,2025-08-06,-14
STUDY001,VS,STUDY001-SUBJ0042,6,HEIGHT,Height,161.7,cm,161.7,161.7,cm,Y,BASELINE,2,2025-08-20,1
STUDY001,VS,STUDY001-SUBJ0042,7,WEIGHT,Weight,115.5,kg,115.5,115.5,kg,Y,BASELINE,2,2025-08-20,1
STUDY001,VS,STUDY001-SUBJ0042,8,TEMP,Temperature,36.5,C,36.5,36.5,C,Y,BASELINE,2,2025-08-20,1
STUDY001,VS,STUDY001-SUBJ0042,9,BP,Blood Pressure,120/93,mmHg,120/93,,mmHg,Y,BASELINE,2,2025-08-20,1
STUDY001,VS,STUDY001-SUBJ0042,10,HR,Heart Rate,73,beats/min,73,73.0,beats/min,Y,BASELINE,2,2025-08-20,1
STUDY001,VS,STUDY001-SUBJ0042,11,HEIGHT,Height,161.6,cm,161.6,161.6,cm,,WEEK 1,3,2025-08-26,7
STUDY001,VS,STUDY001-SUBJ0042,12,WEIGHT,Weight,115.3,kg,115.3,115.3,kg,,WEEK 1,3,2025-08-26,7
STUDY001,VS,STUDY001-SUBJ0042,13,TEMP,Temperature,36.9,C,36.9,36.9,C,,WEEK 1,3,2025-08-26,7
STUDY001,VS,STUDY001-SUBJ0042,14,BP,Blood Pressure,122/90,mmHg,122/90,,mmHg,,WEEK 1,3,2025-08-26,7
STUDY001,VS,STUDY001-SUBJ0042,15,HR,Heart Rate,72,beats/min,72,72.0,beats/min,,WEEK 1,3,2025-08-26,7
STUDY001,VS,STUDY001-SUBJ0042,16,HEIGHT,Height,161.5,cm,161.5,161.5,cm,,WEEK 2,4,2025-09-02,14
STUDY001,VS,STUDY001-SUBJ0042,17,WEIGHT,Weight,114.8,kg,114.8,114.8,kg,,WEEK 2,4,2025-09-02,14
STUDY001,VS,STUDY001-SUBJ0042,18,TEMP,Temperature,36.8,C,36.8,36.8,C,,WEEK 2,4,2025-09-02,14
STUDY001,VS,STUDY001-SUBJ0042,19,BP,Blood Pressure,121/97,mmHg,121/97,,mmHg,,WEEK 2,4,2025-09-02,14
STUDY001,VS,STUDY001-SUBJ0042,20,HR,Heart Rate,74,beats/min,74,74.0,beats/min,,WEEK 2,4,2025-09-02,14
STUDY001,VS,STUDY001-SUBJ0042,21,HEIGHT,Height,161.8,cm,161.8,161.8,cm,,WEEK 4,5,2025-09-16,28
STUDY001,VS,STUDY001-SUBJ0042,22,WEIGHT,Weight,116.2,kg,116.2,116.2,kg,,WEEK 4,5,2025-09-16,28
STUDY001,VS,STUDY001-SUBJ0042,23,TEMP,Temperature,36.5,C,36.5,36.5,C,,WEEK 4,5,2025-09-16,28
STUDY001,VS,STUDY001-SUBJ0042,24,BP,Blood Pressure,120/92,mmHg,120/92,,mmHg,,WEEK 4,5,2025-09-16,28
STUDY001,VS,STUDY001-SUBJ0042,25,HR,Heart Rate,68,beats/min,68,68.0,beats/min,,WEEK 4,5,2025-09-16,28
STUDY001,VS,STUDY001-SUBJ0042,26,HEIGHT,Height,161.7,cm,161.7,161.7,cm,,WEEK 8,6,2025-10-14,56
STUDY001,VS,STUDY001-SUBJ0042,27,WEIGHT,Weight,114.7,kg,114.7,114.7,kg,,WEEK 8,6,2025-10-14,56
STUDY001,VS,STUDY001-SUBJ0042,28,TEMP,Temperature,36.7,C,36.7,36.7,C,,WEEK 8,6,2025-10-14,56
STUDY001,VS,STUDY001-SUBJ0042,29,BP,Blood Pressure,123/95,mmHg,123/95,,mmHg,,WEEK 8,6,2025-10-14,56
STUDY001,VS,STUDY001-SUBJ0042,30,HR,Heart Rate,74,beats/min,74,74.0,beats/min,,WEEK 8,6,2025-10-14,56
STUDY001,VS,STUDY001-SUBJ0042,31,HEIGHT,Height,161.8,cm,161.8,161.8,cm,,WEEK 12,7,2025-11-11,84
STUDY001,VS,STUDY001-SUBJ0042,32,WEIGHT,Weight,115.7,kg,115.7,115.7,kg,,WEEK 12,7,2025-11-11,84
STUDY001,VS,STUDY001-SUBJ0042,33,TEMP,Temperature,36.7,C,36.7,36.7,C,,WEEK 12,7,2025-11-11,84
STUDY001,VS,STUDY001-SUBJ0042,34,BP,Blood Pressure,119/90,mmHg,119/90,,mmHg,,WEEK 12,7,2025-11-11,84
STUDY001,VS,STUDY001-SUBJ0042,35,HR,Heart Rate,70,beats/min,70,70.0,beats/min,,WEEK 12,7,2025-11-11,84
STUDY001,VS,STUDY001-SUBJ0042,36,HEIGHT,Height,161.7,cm,161.7,161.7,cm,,WEEK 16,8,2025-12-09,112
STUDY001,VS,STUDY001-SUBJ0042,37,WEIGHT,Weight,116.2,kg,116.2,116.2,kg,,WEEK 16,8,2025-12-09,112
STUDY001,VS,STUDY001-SUBJ0042,38,TEMP,Temperature,36.6,C,36.6,36.6,C,,WEEK 16,8,2025-12-09,112
STUDY001,VS,STUDY001-SUBJ0042,39,BP,Blood Pressure,125/88,mmHg,125/88,,mmHg,,WEEK 16,8,2025-12-09,112
STUDY001,VS,STUDY001-SUBJ0042,40,HR,Heart Rate,71,beats/min,71,71.0,beats/min,,WEEK 16,8,2025-12-09,112
STUDY001,VS,STUDY001-SUBJ0042,41,HEIGHT,Height,161.5,cm,161.5,161.5,cm,,END OF TREATMENT,9,2026-01-06,140
STUDY001,VS,STUDY001-SUBJ0042,42,WEIGHT,Weight,114.7,kg,114.7,114.7,kg,,END OF TREATMENT,9,2026-01-06,140
STUDY001,VS,STUDY001-SUBJ0042,43,TEMP,Temperature,36.7,C,36.7,36.7,C,,END OF TREATMENT,9,2026-01-06,140
STUDY001,VS,STUDY001-SUBJ0042,44,BP,Blood Pressure,125/90,mmHg,125/90,,mmHg,,END OF TREATMENT,9,2026-01-06,140
STUDY001,VS,STUDY001-SUBJ0042,45,HR,Heart Rate,73,beats/min,73,73.0,beats/min,,END OF TREATMENT,9,2026-01-06,140
STUDY001,VS,STUDY001-SUBJ0043,1,HEIGHT,Height,152.0,cm,152.0,152.0,cm,,SCREENING,1,2025-08-26,-14
STUDY001,VS,STUDY001-SUBJ0043,2,WEIGHT,Weight,77.1,kg,77.1,77.1,kg,,SCREENING,1,2025-08-26,-14
STUDY001,VS,STUDY001-SUBJ0043,3,TEMP,Temperature,36.0,C,36.0,36.0,C,,SCREENING,1,2025-08-26,-14
STUDY001,VS,STUDY001-SUBJ0043,4,BP,Blood Pressure,116/84,mmHg,116/84,,mmHg,,SCREENING,1,2025-08-26,-14
STUDY001,VS,STUDY001-SUBJ0043,5,HR,Heart Rate,67,beats/min,67,67.0,beats/min,,SCREENING,1,2025-08-26,-14
STUDY001,VS,STUDY001-SUBJ0043,6,HEIGHT,Height,152.1,cm,152.1,152.1,cm,Y,BASELINE,2,2025-09-09,1
STUDY001,VS,STUDY001-SUBJ0043,7,WEIGHT,Weight,76.9,kg,76.9,76.9,kg,Y,BASELINE,2,2025-09-09,1
STUDY001,VS,STUDY001-SUBJ0043,8,TEMP,Temperature,35.9,C,35.9,35.9,C,Y,BASELINE,2,2025-09-09,1
STUDY001,VS,STUDY001-SUBJ0043,9,BP,Blood Pressure,108/81,mmHg,108/81,,mmHg,Y,BASELINE,2,2025-09-09,1
STUDY001,VS,STUDY001-SUBJ0043,10,HR,Heart Rate,70,beats/min,70,70.0,beats/min,Y,BASELINE,2,2025-09-09,1
STUDY001,VS,STUDY001-SUBJ0043,11,HEIGHT,Height,151.8,cm,151.8,151.8,cm,,WEEK 1,3,2025-09-15,7
STUDY001,VS,STUDY001-SUBJ0043,12,WEIGHT,Weight,75.9,kg,75.9,75.9,kg,,WEEK 1,3,2025-09-15,7
STUDY001,VS,STUDY001-SUBJ0043,13,TEMP,Temperature,35.9,C,35.9,35.9,C,,WEEK 1,3,2025-09-15,7
STUDY001,VS,STUDY001-SUBJ0043,14,BP,Blood Pressure,110/83,mmHg,110/83,,mmHg,,WEEK 1,3,2025-09-15,7
STUDY001,VS,STUDY001-SUBJ0043,15,HR,Heart Rate,66,beats/min,66,66.0,beats/min,,WEEK 1,3,2025-09-15,7
STUDY001,VS,STUDY001-SUBJ0043,16,HEIGHT,Height,151.8,cm,151.8,151.8,cm,,WEEK 2,4,2025-09-22,14
STUDY001,VS,STUDY001-SUBJ0043,17,WEIGHT,Weight,76.0,kg,76.0,76.0,kg,,WEEK 2,4,2025-09-22,14
STUDY001,VS,STUDY001-SUBJ0043,18,TEMP,Temperature,36.0,C,36.0,36.0,C,,WEEK 2,4,2025-09-22,14
STUDY001,VS,STUDY001-SUBJ0043,19,BP,Blood Pressure,110/83,mmHg,110/83,,mmHg,,WEEK 2,4,2025-09-22,14
STUDY001,VS,STUDY001-SUBJ0043,20,HR,Heart Rate,70,beats/min,70,70.0,beats/min,,WEEK 2,4,2025-09-22,14
STUDY001,VS,STUDY001-SUBJ0043,21,HEIGHT,Height,152.1,cm,152.1,152.1,cm,,WEEK 4,5,2025-10-06,28
STUDY001,VS,STUDY001-SUBJ0043,22,WEIGHT,Weight,76.7,kg,76.7,76.7,kg,,WEEK 4,5,2025-10-06,28
STUDY001,VS,STUDY001-SUBJ0043,23,TEMP,Temperature,35.9,C,35.9,35.9,C,,WEEK 4,5,2025-10-06,28
STUDY001,VS,STUDY001-SUBJ0043,24,BP,Blood Pressure,117/82,mmHg,117/82,,mmHg,,WEEK 4,5,2025-10-06,28
STUDY001,VS,STUDY001-SUBJ0043,25,HR,Heart Rate,67,beats/min,67,67.0,beats/min,,WEEK 4,5,2025-10-06,28
STUDY001,VS,STUDY001-SUBJ0043,26,HEIGHT,Height,152.0,cm,152.0,152.0,cm,,WEEK 8,6,2025-11-03,56
STUDY001,VS,STUDY001-SUBJ0043,27,WEIGHT,Weight,77.2,kg,77.2,77.2,kg,,WEEK 8,6,2025-11-03,56
STUDY001,VS,STUDY001-SUBJ0043,28,TEMP,Temperature,36.1,C,36.1,36.1,C,,WEEK 8,6,2025-11-03,56
STUDY001,VS,STUDY001-SUBJ0043,29,BP,Blood Pressure,114/84,mmHg,114/84,,mmHg,,WEEK 8,6,2025-11-03,56
STUDY001,VS,STUDY001-SUBJ0043,30,HR,Heart Rate,71,beats/min,71,71.0,beats/min,,WEEK 8,6,2025-11-03,56
STUDY001,VS,STUDY001-SUBJ0043,31,HEIGHT,Height,151.8,cm,151.8,151.8,cm,,WEEK 12,7,2025-12-01,84
STUDY001,VS,STUDY001-SUBJ0043,32,WEIGHT,Weight,77.3,kg,77.3,77.3,kg,,WEEK 12,7,2025-12-01,84
STUDY001,VS,STUDY001-SUBJ0043,33,TEMP,Temperature,35.9,C,35.9,35.9,C,,WEEK 12,7,2025-12-01,84
STUDY001,VS,STUDY001-SUBJ0043,34,BP,Blood Pressure,115/81,mmHg,115/81,,mmHg,,WEEK 12,7,2025-12-01,84
STUDY001,VS,STUDY001-SUBJ0043,35,HR,Heart Rate,69,beats/min,69,69.0,beats/min,,WEEK 12,7,2025-12-01,84
STUDY001,VS,STUDY001-SUBJ0043,36,HEIGHT,Height,152.0,cm,152.0,152.0,cm,,WEEK 16,8,2025-12-29,112
STUDY001,VS,STUDY001-SUBJ0043,37,WEIGHT,Weight,75.6,kg,75.6,75.6,kg,,WEEK 16,8,2025-12-29,112
STUDY001,VS,STUDY001-SUBJ0043,38,TEMP,Temperature,36.4,C,36.4,36.4,C,,WEEK 16,8,2025-12-29,112
STUDY001,VS,STUDY001-SUBJ0043,39,BP,Blood Pressure,117/87,mmHg,117/87,,mmHg,,WEEK 16,8,2025-12-29,112
STUDY001,VS,STUDY001-SUBJ0043,40,HR,Heart Rate,69,beats/min,69,69.0,beats/min,,WEEK 16,8,2025-12-29,112
STUDY001,VS,STUDY001-SUBJ0043,41,HEIGHT,Height,151.9,cm,151.9,151.9,cm,,END OF TREATMENT,9,2026-01-26,140
STUDY001,VS,STUDY001-SUBJ0043,42,WEIGHT,Weight,76.0,kg,76.0,76.0,kg,,END OF TREATMENT,9,2026-01-26,140
STUDY001,VS,STUDY001-SUBJ0043,43,TEMP,Temperature,36.1,C,36.1,36.1,C,,END OF TREATMENT,9,2026-01-26,140
STUDY001,VS,STUDY001-SUBJ0043,44,BP,Blood Pressure,108/85,mmHg,108/85,,mmHg,,END OF TREATMENT,9,2026-01-26,140
STUDY001,VS,STUDY001-SUBJ0043,45,HR,Heart Rate,72,beats/min,72,72.0,beats/min,,END OF TREATMENT,9,2026-01-26,140
STUDY001,VS,STUDY001-SUBJ0044,1,HEIGHT,Height,164.5,cm,164.5,164.5,cm,,SCREENING,1,2025-04-09,-14
STUDY001,VS,STUDY001-SUBJ0044,2,WEIGHT,Weight,73.4,kg,73.4,73.4,kg,,SCREENING,1,2025-04-09,-14
STUDY001,VS,STUDY001-SUBJ0044,3,TEMP,Temperature,36.1,C,36.1,36.1,C,,SCREENING,1,2025-04-09,-14
STUDY001,VS,STUDY001-SUBJ0044,4,BP,Blood Pressure,114/79,mmHg,114/79,,mmHg,,SCREENING,1,2025-04-09,-14
STUDY001,VS,STUDY001-SUBJ0044,5,HR,Heart Rate,80,beats/min,80,80.0,beats/min,,SCREENING,1,2025-04-09,-14
STUDY001,VS,STUDY001-SUBJ0044,6,HEIGHT,Height,164.4,cm,164.4,164.4,cm,Y,BASELINE,2,2025-04-23,1
STUDY001,VS,STUDY001-SUBJ0044,7,WEIGHT,Weight,73.8,kg,73.8,73.8,kg,Y,BASELINE,2,2025-04-23,1
STUDY001,VS,STUDY001-SUBJ0044,8,TEMP,Temperature,35.9,C,35.9,35.9,C,Y,BASELINE,2,2025-04-23,1
STUDY001,VS,STUDY001-SUBJ0044,9,BP,Blood Pressure,108/80,mmHg,108/80,,mmHg,Y,BASELINE,2,2025-04-23,1
STUDY001,VS,STUDY001-SUBJ0044,10,HR,Heart Rate,77,beats/min,77,77.0,beats/min,Y,BASELINE,2,2025-04-23,1
STUDY001,VS,STUDY001-SUBJ0044,11,HEIGHT,Height,164.5,cm,164.5,164.5,cm,,WEEK 1,3,2025-04-29,7
STUDY001,VS,STUDY001-SUBJ0044,12,WEIGHT,Weight,73.3,kg,73.3,73.3,kg,,WEEK 1,3,2025-04-29,7
STUDY001,VS,STUDY001-SUBJ0044,13,TEMP,Temperature,35.8,C,35.8,35.8,C,,WEEK 1,3,2025-04-29,7
STUDY001,VS,STUDY001-SUBJ0044,14,BP,Blood Pressure,107/87,mmHg,107/87,,mmHg,,WEEK 1,3,2025-04-29,7
STUDY001,VS,STUDY001-SUBJ0044,15,HR,Heart Rate,81,beats/min,81,81.0,beats/min,,WEEK 1,3,2025-04-29,7
STUDY001,VS,STUDY001-SUBJ0044,16,HEIGHT,Height,164.6,cm,164.6,164.6,cm,,WEEK 2,4,2025-05-06,14
STUDY001,VS,STUDY001-SUBJ0044,17,WEIGHT,Weight,73.5,kg,73.5,73.5,kg,,WEEK 2,4,2025-05-06,14
STUDY001,VS,STUDY001-SUBJ0044,18,TEMP,Temperature,35.9,C,35.9,35.9,C,,WEEK 2,4,2025-05-06,14
STUDY001,VS,STUDY001-SUBJ0044,19,BP,Blood Pressure,109/81,mmHg,109/81,,mmHg,,WEEK 2,4,2025-05-06,14
STUDY001,VS,STUDY001-SUBJ0044,20,HR,Heart Rate,80,beats/min,80,80.0,beats/min,,WEEK 2,4,2025-05-06,14
STUDY001,VS,STUDY001-SUBJ0044,21,HEIGHT,Height,164.5,cm,164.5,164.5,cm,,WEEK 4,5,2025-05-20,28
STUDY001,VS,STUDY001-SUBJ0044,22,WEIGHT,Weight,74.0,kg,74.0,74.0,kg,,WEEK 4,5,2025-05-20,28
STUDY001,VS,STUDY001-SUBJ0044,23,TEMP,Temperature,36.1,C,36.1,36.1,C,,WEEK 4,5,2025-05-20,28
STUDY001,VS,STUDY001-SUBJ0044,24,BP,Blood Pressure,114/80,mmHg,114/80,,mmHg,,WEEK 4,5,2025-05-20,28
STUDY001,VS,STUDY001-SUBJ0044,25,HR,Heart Rate,72,beats/min,72,72.0,beats/min,,WEEK 4,5,2025-05-20,28
STUDY001,VS,STUDY001-SUBJ0044,26,HEIGHT,Height,164.4,cm,164.4,164.4,cm,,WEEK 8,6,2025-06-17,56
STUDY001,VS,STUDY001-SUBJ0044,27,WEIGHT,Weight,73.8,kg,73.8,73.8,kg,,WEEK 8,6,2025-06-17,56
STUDY001,VS,STUDY001-SUBJ0044,28,TEMP,Temperature,36.3,C,36.3,36.3,C,,WEEK 8,6,2025-06-17,56
STUDY001,VS,STUDY001-SUBJ0044,29,BP,Blood Pressure,107/79,mmHg,107/79,,mmHg,,WEEK 8,6,2025-06-17,56
STUDY001,VS,STUDY001-SUBJ0044,30,HR,Heart Rate,80,beats/min,80,80.0,beats/min,,WEEK 8,6,2025-06-17,56
STUDY001,VS,STUDY001-SUBJ0044,31,HEIGHT,Height,164.4,cm,164.4,164.4,cm,,WEEK 12,7,2025-07-15,84
STUDY001,VS,STUDY001-SUBJ0044,32,WEIGHT,Weight,74.1,kg,74.1,74.1,kg,,WEEK 12,7,2025-07-15,84
STUDY001,VS,STUDY001-SUBJ0044,33,TEMP,Temperature,36.2,C,36.2,36.2,C,,WEEK 12,7,2025-07-15,84
STUDY001,VS,STUDY001-SUBJ0044,34,BP,Blood Pressure,114/81,mmHg,114/81,,mmHg,,WEEK 12,7,2025-07-15,84
STUDY001,VS,STUDY001-SUBJ0044,35,HR,Heart Rate,72,beats/min,72,72.0,beats/min,,WEEK 12,7,2025-07-15,84
STUDY001,VS,STUDY001-SUBJ0044,36,HEIGHT,Height,164.5,cm,164.5,164.5,cm,,WEEK 16,8,2025-08-12,112
STUDY001,VS,STUDY001-SUBJ0044,37,WEIGHT,Weight,73.9,kg,73.9,73.9,kg,,WEEK 16,8,2025-08-12,112
STUDY001,VS,STUDY001-SUBJ0044,38,TEMP,Temperature,36.0,C,36.0,36.0,C,,WEEK 16,8,2025-08-12,112
STUDY001,VS,STUDY001-SUBJ0044,39,BP,Blood Pressure,113/84,mmHg,113/84,,mmHg,,WEEK 16,8,2025-08-12,112
STUDY001,VS,STUDY001-SUBJ0044,40,HR,Heart Rate,78,beats/min,78,78.0,beats/min,,WEEK 16,8,2025-08-12,112
STUDY001,VS,STUDY001-SUBJ0044,41,HEIGHT,Height,164.7,cm,164.7,164.7,cm,,END OF TREATMENT,9,2025-09-09,140
STUDY001,VS,STUDY001-SUBJ0044,42,WEIGHT,Weight,73.0,kg,73.0,73.0,kg,,END OF TREATMENT,9,2025-09-09,140
STUDY001,VS,STUDY001-SUBJ0044,43,TEMP,Temperature,36.0,C,36.0,36.0,C,,END OF TREATMENT,9,2025-09-09,140
STUDY001,VS,STUDY001-SUBJ0044,44,BP,Blood Pressure,106/83,mmHg,106/83,,mmHg,,END OF TREATMENT,9,2025-09-09,140
STUDY001,VS,STUDY001-SUBJ0044,45,HR,Heart Rate,71,beats/min,71,71.0,beats/min,,END OF TREATMENT,9,2025-09-09,140
STUDY001,VS,STUDY001-SUBJ0045,1,HEIGHT,Height,166.4,cm,166.4,166.4,cm,,SCREENING,1,2025-09-22,-14
STUDY001,VS,STUDY001-SUBJ0045,2,WEIGHT,Weight,116.4,kg,116.4,116.4,kg,,SCREENING,1,2025-09-22,-14
STUDY001,VS,STUDY001-SUBJ0045,3,TEMP,Temperature,36.2,C,36.2,36.2,C,,SCREENING,1,2025-09-22,-14
STUDY001,VS,STUDY001-SUBJ0045,4,BP,Blood Pressure,138/81,mmHg,138/81,,mmHg,,SCREENING,1,2025-09-22,-14
STUDY001,VS,STUDY001-SUBJ0045,5,HR,Heart Rate,84,beats/min,84,84.0,beats/min,,SCREENING,1,2025-09-22,-14
STUDY001,VS,STUDY001-SUBJ0045,6,HEIGHT,Height,166.3,cm,166.3,166.3,cm,Y,BASELINE,2,2025-10-06,1
STUDY001,VS,STUDY001-SUBJ0045,7,WEIGHT,Weight,116.1,kg,116.1,116.1,kg,Y,BASELINE,2,2025-10-06,1
STUDY001,VS,STUDY001-SUBJ0045,8,TEMP,Temperature,36.3,C,36.3,36.3,C,Y,BASELINE,2,2025-10-06,1
STUDY001,VS,STUDY001-SUBJ0045,9,BP,Blood Pressure,131/81,mmHg,131/81,,mmHg,Y,BASELINE,2,2025-10-06,1
STUDY001,VS,STUDY001-SUBJ0045,10,HR,Heart Rate,87,beats/min,87,87.0,beats/min,Y,BASELINE,2,2025-10-06,1
STUDY001,VS,STUDY001-SUBJ0045,11,HEIGHT,Height,166.5,cm,166.5,166.5,cm,,WEEK 1,3,2025-10-12,7
STUDY001,VS,STUDY001-SUBJ0045,12,WEIGHT,Weight,114.9,kg,114.9,114.9,kg,,WEEK 1,3,2025-10-12,7
STUDY001,VS,STUDY001-SUBJ0045,13,TEMP,Temperature,36.6,C,36.6,36.6,C,,WEEK 1,3,2025-10-12,7
STUDY001,VS,STUDY001-SUBJ0045,14,BP,Blood Pressure,134/80,mmHg,134/80,,mmHg,,WEEK 1,3,2025-10-12,7
STUDY001,VS,STUDY001-SUBJ0045,15,HR,Heart Rate,84,beats/min,84,84.0,beats/min,,WEEK 1,3,2025-10-12,7
STUDY001,VS,STUDY001-SUBJ0045,16,HEIGHT,Height,166.2,cm,166.2,166.2,cm,,WEEK 2,4,2025-10-19,14
STUDY001,VS,STUDY001-SUBJ0045,17,WEIGHT,Weight,116.5,kg,116.5,116.5,kg,,WEEK 2,4,2025-10-19,14
STUDY001,VS,STUDY001-SUBJ0045,18,TEMP,Temperature,36.1,C,36.1,36.1,C,,WEEK 2,4,2025-10-19,14
STUDY001,VS,STUDY001-SUBJ0045,19,BP,Blood Pressure,133/72,mmHg,133/72,,mmHg,,WEEK 2,4,2025-10-19,14
STUDY001,VS,STUDY001-SUBJ0045,20,HR,Heart Rate,86,beats/min,86,86.0,beats/min,,WEEK 2,4,2025-10-19,14
STUDY001,VS,STUDY001-SUBJ0045,21,HEIGHT,Height,166.5,cm,166.5,166.5,cm,,WEEK 4,5,2025-11-02,28
STUDY001,VS,STUDY001-SUBJ0045,22,WEIGHT,Weight,115.7,kg,115.7,115.7,kg,,WEEK 4,5,2025-11-02,28
STUDY001,VS,STUDY001-SUBJ0045,23,TEMP,Temperature,36.6,C,36.6,36.6,C,,WEEK 4,5,2025-11-02,28
STUDY001,VS,STUDY001-SUBJ0045,24,BP,Blood Pressure,132/81,mmHg,132/81,,mmHg,,WEEK 4,5,2025-11-02,28
STUDY001,VS,STUDY001-SUBJ0045,25,HR,Heart Rate,89,beats/min,89,89.0,beats/min,,WEEK 4,5,2025-11-02,28
STUDY001,VS,STUDY001-SUBJ0045,26,HEIGHT,Height,166.4,cm,166.4,166.4,cm,,WEEK 8,6,2025-11-30,56
STUDY001,VS,STUDY001-SUBJ0045,27,WEIGHT,Weight,115.8,kg,115.8,115.8,kg,,WEEK 8,6,2025-11-30,56
STUDY001,VS,STUDY001-SUBJ0045,28,TEMP,Temperature,36.2,C,36.2,36.2,C,,WEEK 8,6,2025-11-30,56
STUDY001,VS,STUDY001-SUBJ0045,29,BP,Blood Pressure,133/81,mmHg,133/81,,mmHg,,WEEK 8,6,2025-11-30,56
STUDY001,VS,STUDY001-SUBJ0045,30,HR,Heart Rate,90,beats/min,90,90.0,beats/min,,WEEK 8,6,2025-11-30,56
STUDY001,VS,STUDY001-SUBJ0045,31,HEIGHT,Height,166.3,cm,166.3,166.3,cm,,WEEK 12,7,2025-12-28,84
STUDY001,VS,STUDY001-SUBJ0045,32,WEIGHT,Weight,116.2,kg,116.2,116.2,kg,,WEEK 12,7,2025-12-28,84
STUDY001,VS,STUDY001-SUBJ0045,33,TEMP,Temperature,36.1,C,36.1,36.1,C,,WEEK 12,7,2025-12-28,84
STUDY001,VS,STUDY001-SUBJ0045,34,BP,Blood Pressure,139/80,mmHg,139/80,,mmHg,,WEEK 12,7,2025-12-28,84
STUDY001,VS,STUDY001-SUBJ0045,35,HR,Heart Rate,88,beats/min,88,88.0,beats/min,,WEEK 12,7,2025-12-28,84
STUDY001,VS,STUDY001-SUBJ0045,36,HEIGHT,Height,166.3,cm,166.3,166.3,cm,,WEEK 16,8,2026-01-25,112
STUDY001,VS,STUDY001-SUBJ0045,37,WEIGHT,Weight,114.8,kg,114.8,114.8,kg,,WEEK 16,8,2026-01-25,112
STUDY001,VS,STUDY001-SUBJ0045,38,TEMP,Temperature,36.1,C,36.1,36.1,C,,WEEK 16,8,2026-01-25,112
STUDY001,VS,STUDY001-SUBJ0045,39,BP,Blood Pressure,135/76,mmHg,135/76,,mmHg,,WEEK 16,8,2026-01-25,112
STUDY001,VS,STUDY001-SUBJ0045,40,HR,Heart Rate,92,beats/min,92,92.0,beats/min,,WEEK 16,8,2026-01-25,112
STUDY001,VS,STUDY001-SUBJ0045,41,HEIGHT,Height,166.2,cm,166.2,166.2,cm,,END OF TREATMENT,9,2026-02-22,140
STUDY001,VS,STUDY001-SUBJ0045,42,WEIGHT,Weight,115.3,kg,115.3,115.3,kg,,END OF TREATMENT,9,2026-02-22,140
STUDY001,VS,STUDY001-SUBJ0045,43,TEMP,Temperature,36.4,C,36.4,36.4,C,,END OF TREATMENT,9,2026-02-22,140
STUDY001,VS,STUDY001-SUBJ0045,44,BP,Blood Pressure,136/78,mmHg,136/78,,mmHg,,END OF TREATMENT,9,2026-02-22,140
STUDY001,VS,STUDY001-SUBJ0045,45,HR,Heart Rate,86,beats/min,86,86.0,beats/min,,END OF TREATMENT,9,2026-02-22,140
STUDY001,VS,STUDY001-SUBJ0046,1,HEIGHT,Height,188.1,cm,188.1,188.1,cm,,SCREENING,1,2025-09-11,-14
STUDY001,VS,STUDY001-SUBJ0046,2,WEIGHT,Weight,103.1,kg,103.1,103.1,kg,,SCREENING,1,2025-09-11,-14
STUDY001,VS,STUDY001-SUBJ0046,3,TEMP,Temperature,36.6,C,36.6,36.6,C,,SCREENING,1,2025-09-11,-14
