STUDYID,DOMAIN,USUBJID,SUBJID,RFSTDTC,RFENDTC,RFXSTDTC,RFXENDTC,RFICDTC,RFPENDTC,DTHDTC,DTHFL,SITEID,AGE,AGEU,SEX,RACE,ETHNIC,ARMCD,ARM,ACTARMCD,ACTARM,COUNTRY,DMDTC,DMDY
STUDY001,DM,STUDY001-SUBJ0001,SUBJ0001,2025-09-14,2026-02-14,2025-10-17,2026-01-22,2025-12-24,2026-02-14,,,10,32,YEARS,F,WHITE,NOT HISPANIC OR LATINO,ARM2,Treatment 2,ARM3,Treatment 3,NI,2025-03-12,11
STUDY001,DM,STUDY001-SUBJ0002,SUBJ0002,2025-08-06,2026-02-04,2025-09-27,2026-02-03,2025-05-07,2026-02-04,,,45,73,YEARS,F,AMERICAN INDIAN OR ALASKA NATIVE,HISPANIC OR LATINO,ARM1,Treatment 1,ARM1,Treatment 1,VC,2025-02-23,6
STUDY001,DM,STUDY001-SUBJ0003,SUBJ0003,2025-12-23,2026-02-12,2025-04-27,2026-01-25,2025-12-24,2026-02-12,,,1,69,YEARS,M,BLACK OR AFRICAN AMERICAN,NOT HISPANIC OR LATINO,ARM2,Treatment 2,ARM2,Treatment 2,CD,2025-12-27,17
STUDY001,DM,STUDY001-SUBJ0004,SUBJ0004,2025-04-11,2026-02-02,2025-08-06,2026-02-12,2025-09-22,2026-02-02,,,40,65,YEARS,M,OTHER,HISPANIC OR LATINO,ARM2,Treatment 2,ARM2,Treatment 2,TW,2025-09-04,12
STUDY001,DM,STUDY001-SUBJ0005,SUBJ0005,2025-10-19,2026-02-08,2025-12-23,2026-01-25,2025-12-20,2026-02-08,,,45,30,YEARS,M,ASIAN,HISPANIC OR LATINO,ARM2,Treatment 2,ARM2,Treatment 2,PE,2025-06-27,17
STUDY001,DM,STUDY001-SUBJ0006,SUBJ0006,2025-11-26,2026-01-30,2025-05-04,2026-02-16,2025-07-28,2026-01-30,,,21,49,YEARS,F,AMERICAN INDIAN OR ALASKA NATIVE,NOT HISPANIC OR LATINO,ARM2,Treatment 2,ARM2,Treatment 2,BY,2025-07-09,18
STUDY001,DM,STUDY001-SUBJ0007,SUBJ0007,2025-07-01,2026-02-13,2025-03-07,2026-01-29,2025-03-08,2026-02-13,,,47,75,YEARS,M,AMERICAN INDIAN OR ALASKA NATIVE,NOT HISPANIC OR LATINO,ARM2,Treatment 2,ARM2,Treatment 2,HT,2025-07-28,19
STUDY001,DM,STUDY001-SUBJ0008,SUBJ0008,2025-12-22,2026-02-07,2025-03-17,2026-02-05,2025-07-18,2026-02-07,,,6,69,YEARS,M,OTHER,NOT HISPANIC OR LATINO,ARM3,Treatment 3,ARM3,Treatment 3,BO,2025-05-11,4
STUDY001,DM,STUDY001-SUBJ0009,SUBJ0009,2026-01-16,2026-02-15,2025-06-09,2026-02-06,2025-05-23,2026-02-15,,,47,80,YEARS,M,AMERICAN INDIAN OR ALASKA NATIVE,NOT HISPANIC OR LATINO,ARM1,Treatment 1,ARM1,Treatment 1,SN,2025-08-27,10
STUDY001,DM,STUDY001-SUBJ0010,SUBJ0010,2025-11-22,2026-01-26,2025-10-02,2026-01-20,2025-10-16,2026-01-26,,,46,28,YEARS,M,OTHER,NOT HISPANIC OR LATINO,ARM2,Treatment 2,ARM2,Treatment 2,FI,2025-09-04,9
STUDY001,DM,STUDY001-SUBJ0011,SUBJ0011,2025-06-03,2026-02-13,2025-12-14,2026-02-15,2025-12-09,2026-02-13,,,10,34,YEARS,F,OTHER,HISPANIC OR LATINO,ARM3,Treatment 3,ARM3,Treatment 3,DM,2025-05-15,27
STUDY001,DM,STUDY001-SUBJ0012,SUBJ0012,2025-02-21,2026-02-10,2025-10-07,2026-02-06,2025-06-05,2026-02-10,,,39,21,YEARS,M,BLACK OR AFRICAN AMERICAN,HISPANIC OR LATINO,ARM1,Treatment 1,ARM1,Treatment 1,ST,2025-04-14,7
STUDY001,DM,STUDY001-SUBJ0013,SUBJ0013,2025-05-22,2026-02-11,2025-12-02,2026-02-16,2025-11-30,2026-02-11,,,39,77,YEARS,M,WHITE,NOT HISPANIC OR LATINO,ARM2,Treatment 2,ARM2,Treatment 2,MG,2025-03-12,22
STUDY001,DM,STUDY001-SUBJ0014,SUBJ0014,2025-11-16,2026-02-02,2025-02-19,2026-01-26,2025-07-23,2026-02-02,,,12,41,YEARS,M,ASIAN,HISPANIC OR LATINO,ARM2,Treatment 2,ARM2,Treatment 2,LK,2025-04-29,4
STUDY001,DM,STUDY001-SUBJ0015,SUBJ0015,2025-12-25,2026-02-16,2025-02-27,2026-01-18,2025-07-05,2026-02-16,,,8,76,YEARS,M,AMERICAN INDIAN OR ALASKA NATIVE,NOT HISPANIC OR LATINO,ARM2,Treatment 2,ARM2,Treatment 2,BW,2025-04-04,12
STUDY001,DM,STUDY001-SUBJ0016,SUBJ0016,2025-05-28,2026-02-05,2025-09-28,2026-02-11,2025-11-04,2026-02-05,,,38,21,YEARS,M,ASIAN,HISPANIC OR LATINO,ARM1,Treatment 1,ARM1,Treatment 1,SC,2025-06-28,16
STUDY001,DM,STUDY001-SUBJ0017,SUBJ0017,2025-04-26,2026-02-08,2025-03-26,2026-02-06,2025-08-13,2026-02-08,,,30,44,YEARS,M,OTHER,NOT HISPANIC OR LATINO,ARM1,Treatment 1,ARM1,Treatment 1,LI,2025-09-19,9
STUDY001,DM,STUDY001-SUBJ0018,SUBJ0018,2025-05-25,2026-02-10,2025-06-07,2026-01-20,2025-11-14,2026-02-10,,,19,34,YEARS,F,BLACK OR AFRICAN AMERICAN,NOT HISPANIC OR LATINO,ARM3,Treatment 3,ARM3,Treatment 3,UZ,2025-08-07,11
STUDY001,DM,STUDY001-SUBJ0019,SUBJ0019,2025-09-02,2026-01-24,2025-07-17,2026-02-13,2025-05-19,2026-01-24,,,8,22,YEARS,M,WHITE,HISPANIC OR LATINO,ARM2,Treatment 2,ARM2,Treatment 2,MD,2025-04-13,6
STUDY001,DM,STUDY001-SUBJ0020,SUBJ0020,2025-04-06,2026-01-19,2025-07-13,2026-02-06,2025-03-25,2026-01-19,,,21,78,YEARS,F,ASIAN,HISPANIC OR LATINO,ARM3,Treatment 3,ARM3,Treatment 3,LI,2025-04-09,6
STUDY001,DM,STUDY001-SUBJ0021,SUBJ0021,2025-04-06,2026-01-29,2025-09-29,2026-01-28,2025-12-04,2026-01-29,,,47,57,YEARS,F,OTHER,HISPANIC OR LATINO,ARM3,Treatment 3,ARM3,Treatment 3,TV,2025-10-31,24
STUDY001,DM,STUDY001-SUBJ0022,SUBJ0022,2025-05-01,2026-01-29,2025-08-15,2026-02-04,2025-08-04,2026-01-29,,,9,29,YEARS,F,AMERICAN INDIAN OR ALASKA NATIVE,NOT HISPANIC OR LATINO,ARM2,Treatment 2,ARM3,Treatment 3,SC,2025-11-03,8
STUDY001,DM,STUDY001-SUBJ0023,SUBJ0023,2025-10-31,2026-02-11,2025-06-17,2026-02-10,2026-01-01,2026-02-11,,,34,54,YEARS,F,AMERICAN INDIAN OR ALASKA NATIVE,HISPANIC OR LATINO,ARM1,Treatment 1,ARM1,Treatment 1,CZ,2025-05-09,21
STUDY001,DM,STUDY001-SUBJ0024,SUBJ0024,2025-11-23,2026-02-01,2025-04-21,2026-02-08,2025-10-17,2026-02-01,,,28,55,YEARS,F,OTHER,HISPANIC OR LATINO,ARM3,Treatment 3,ARM3,Treatment 3,US,2025-03-20,27
STUDY001,DM,STUDY001-SUBJ0025,SUBJ0025,2025-03-30,2026-01-19,2025-12-24,2026-02-05,2025-08-17,2026-01-19,,,8,34,YEARS,F,WHITE,NOT HISPANIC OR LATINO,ARM3,Treatment 3,ARM3,Treatment 3,AT,2025-12-28,28
STUDY001,DM,STUDY001-SUBJ0026,SUBJ0026,2026-01-08,2026-01-18,2025-06-23,2026-02-03,2025-10-01,2026-01-18,,,39,23,YEARS,M,BLACK OR AFRICAN AMERICAN,HISPANIC OR LATINO,ARM2,Treatment 2,ARM2,Treatment 2,VU,2025-12-20,21
STUDY001,DM,STUDY001-SUBJ0027,SUBJ0027,2025-08-09,2026-02-04,2025-06-11,2026-01-24,2025-10-12,2026-02-04,,,4,22,YEARS,F,WHITE,HISPANIC OR LATINO,ARM1,Treatment 1,ARM1,Treatment 1,FR,2025-12-02,18
STUDY001,DM,STUDY001-SUBJ0028,SUBJ0028,2025-07-05,2026-01-31,2025-12-07,2026-01-23,2025-03-19,2026-01-31,,,35,57,YEARS,M,OTHER,NOT HISPANIC OR LATINO,ARM2,Treatment 2,ARM2,Treatment 2,BB,2025-09-02,4
STUDY001,DM,STUDY001-SUBJ0029,SUBJ0029,2025-10-27,2026-01-24,2025-03-09,2026-02-05,2025-11-25,2026-01-24,,,24,34,YEARS,F,BLACK OR AFRICAN AMERICAN,HISPANIC OR LATINO,ARM1,Treatment 1,ARM1,Treatment 1,IR,2025-04-29,8
STUDY001,DM,STUDY001-SUBJ0030,SUBJ0030,2025-10-03,2026-01-29,2025-05-14,2026-02-03,2025-08-05,2026-01-29,,,32,48,YEARS,M,ASIAN,HISPANIC OR LATINO,ARM1,Treatment 1,ARM3,Treatment 3,RW,2026-01-08,19
STUDY001,DM,STUDY001-SUBJ0031,SUBJ0031,2025-10-19,2026-02-07,2025-12-21,2026-01-25,2025-12-05,2026-02-07,,,39,50,YEARS,M,AMERICAN INDIAN OR ALASKA NATIVE,NOT HISPANIC OR LATINO,ARM3,Treatment 3,ARM3,Treatment 3,LC,2025-10-28,6
STUDY001,DM,STUDY001-SUBJ0032,SUBJ0032,2025-09-14,2026-01-25,2025-06-12,2026-02-04,2025-08-01,2026-01-25,,,2,63,YEARS,F,AMERICAN INDIAN OR ALASKA NATIVE,NOT HISPANIC OR LATINO,ARM2,Treatment 2,ARM2,Treatment 2,AU,2025-03-28,4
STUDY001,DM,STUDY001-SUBJ0033,SUBJ0033,2025-07-01,2026-02-05,2025-03-17,2026-01-22,2025-07-29,2026-02-05,,,26,77,YEARS,M,BLACK OR AFRICAN AMERICAN,HISPANIC OR LATINO,ARM3,Treatment 3,ARM3,Treatment 3,LB,2026-01-04,13
STUDY001,DM,STUDY001-SUBJ0034,SUBJ0034,2025-05-26,2026-01-31,2025-12-27,2026-02-01,2025-03-29,2026-01-31,,,24,38,YEARS,M,OTHER,HISPANIC OR LATINO,ARM2,Treatment 2,ARM2,Treatment 2,BB,2025-03-27,9
STUDY001,DM,STUDY001-SUBJ0035,SUBJ0035,2026-01-06,2026-01-27,2025-06-18,2026-01-22,2025-08-04,2026-01-27,,,11,63,YEARS,F,OTHER,HISPANIC OR LATINO,ARM3,Treatment 3,ARM3,Treatment 3,GR,2025-04-14,7
STUDY001,DM,STUDY001-SUBJ0036,SUBJ0036,2025-06-10,2026-02-05,2026-01-06,2026-02-08,2025-06-09,2026-02-05,,,37,55,YEARS,F,AMERICAN INDIAN OR ALASKA NATIVE,HISPANIC OR LATINO,ARM1,Treatment 1,ARM1,Treatment 1,TO,2025-10-23,4
STUDY001,DM,STUDY001-SUBJ0037,SUBJ0037,2025-09-30,2026-02-09,2025-05-22,2026-02-10,2025-12-25,2026-02-09,,,9,25,YEARS,F,OTHER,NOT HISPANIC OR LATINO,ARM3,Treatment 3,ARM3,Treatment 3,PT,2025-06-29,21
STUDY001,DM,STUDY001-SUBJ0038,SUBJ0038,2025-03-27,2026-02-10,2025-09-22,2026-01-23,2025-07-18,2026-02-10,,,16,78,YEARS,F,BLACK OR AFRICAN AMERICAN,NOT HISPANIC OR LATINO,ARM3,Treatment 3,ARM3,Treatment 3,FM,2025-09-10,9
STUDY001,DM,STUDY001-SUBJ0039,SUBJ0039,2025-03-16,2026-01-28,2025-09-11,2026-02-09,2025-07-09,2026-01-28,,,1,44,YEARS,F,BLACK OR AFRICAN AMERICAN,HISPANIC OR LATINO,ARM2,Treatment 2,ARM2,Treatment 2,IQ,2025-05-22,16
STUDY001,DM,STUDY001-SUBJ0040,SUBJ0040,2025-03-01,2026-02-05,2025-04-12,2026-02-14,2025-12-07,2026-02-05,,,6,38,YEARS,M,AMERICAN INDIAN OR ALASKA NATIVE,NOT HISPANIC OR LATINO,ARM2,Treatment 2,ARM2,Treatment 2,MV,2025-11-08,11
STUDY001,DM,STUDY001-SUBJ0041,SUBJ0041,2025-09-27,2026-01-23,2025-10-07,2026-02-15,2025-12-09,2026-01-23,,,29,41,YEARS,M,ASIAN,HISPANIC OR LATINO,ARM2,Treatment 2,ARM2,Treatment 2,BW,2025-06-20,14
STUDY001,DM,STUDY001-SUBJ0042,SUBJ0042,2025-03-14,2026-02-08,2025-10-25,2026-02-10,2025-04-07,2026-02-08,,,25,42,YEARS,F,ASIAN,NOT HISPANIC OR LATINO,ARM1,Treatment 1,ARM1,Treatment 1,HR,2025-07-17,30
STUDY001,DM,STUDY001-SUBJ0043,SUBJ0043,2025-06-24,2026-02-10,2025-10-15,2026-02-09,2025-12-09,2026-02-10,,,41,18,YEARS,F,OTHER,HISPANIC OR LATINO,ARM1,Treatment 1,ARM1,Treatment 1,PK,2025-08-05,27
STUDY001,DM,STUDY001-SUBJ0044,SUBJ0044,2025-02-27,2026-01-20,2025-06-08,2026-02-04,2025-02-28,2026-01-20,,,9,65,YEARS,F,ASIAN,HISPANIC OR LATINO,ARM1,Treatment 1,ARM1,Treatment 1,MT,2025-06-22,7
STUDY001,DM,STUDY001-SUBJ0045,SUBJ0045,2025-04-19,2026-01-31,2025-05-13,2026-01-22,2025-05-15,2026-01-31,,,12,35,YEARS,M,OTHER,HISPANIC OR LATINO,ARM3,Treatment 3,ARM3,Treatment 3,IE,2025-05-09,29
STUDY001,DM,STUDY001-SUBJ0046,SUBJ0046,2025-05-27,2026-01-30,2025-03-06,2026-01-22,2025-12-24,2026-01-30,,,29,80,YEARS,F,BLACK OR AFRICAN AMERICAN,HISPANIC OR LATINO,ARM1,Treatment 1,ARM1,Treatment 1,BH,2025-07-02,14
STUDY001,DM,STUDY001-SUBJ0047,SUBJ0047,2025-10-26,2026-02-06,2025-03-15,2026-01-27,2025-05-10,2026-02-06,,,15,80,YEARS,M,OTHER,NOT HISPANIC OR LATINO,ARM2,Treatment 2,ARM2,Treatment 2,PW,2025-08-01,11
STUDY001,DM,STUDY001-SUBJ0048,SUBJ0048,2025-02-21,2026-01-21,2025-09-17,2026-01-31,2025-09-12,2026-01-21,,,13,78,YEARS,M,WHITE,NOT HISPANIC OR LATINO,ARM3,Treatment 3,ARM3,Treatment 3,SZ,2025-11-15,16
STUDY001,DM,STUDY001-SUBJ0049,SUBJ0049,2025-05-21,2026-01-26,2026-01-08,2026-02-04,2025-10-01,2026-01-26,,,34,69,YEARS,F,BLACK OR AFRICAN AMERICAN,NOT HISPANIC OR LATINO,ARM2,Treatment 2,ARM2,Treatment 2,KN,2025-06-28,29
STUDY001,DM,STUDY001-SUBJ0050,SUBJ0050,2025-06-24,2026-02-06,2025-03-25,2026-02-12,2025-04-04,2026-02-06,,,20,72,YEARS,M,AMERICAN INDIAN OR ALASKA NATIVE,NOT HISPANIC OR LATINO,ARM2,Treatment 2,ARM2,Treatment 2,AD,2025-04-06,28
STUDY001,DM,STUDY001-SUBJ0051,SUBJ0051,2025-09-26,2026-01-24,2025-03-21,2026-02-12,2025-04-27,2026-01-24,,,42,67,YEARS,M,ASIAN,NOT HISPANIC OR LATINO,ARM1,Treatment 1,ARM1,Treatment 1,PT,2026-01-03,13
STUDY001,DM,STUDY001-SUBJ0052,SUBJ0052,2025-12-13,2026-02-02,2025-05-22,2026-01-25,2025-08-23,2026-02-02,,,21,30,YEARS,M,WHITE,NOT HISPANIC OR LATINO,ARM2,Treatment 2,ARM2,Treatment 2,BD,2025-12-10,23
STUDY001,DM,STUDY001-SUBJ0053,SUBJ0053,2025-08-06,2026-01-24,2025-06-05,2026-02-07,2025-05-05,2026-01-24,,,25,68,YEARS,M,ASIAN,HISPANIC OR LATINO,ARM3,Treatment 3,ARM3,Treatment 3,NG,2025-12-31,24
STUDY001,DM,STUDY001-SUBJ0054,SUBJ0054,2026-01-17,2026-02-05,2025-12-12,2026-01-19,2025-06-16,2026-02-05,,,46,56,YEARS,M,BLACK OR AFRICAN AMERICAN,HISPANIC OR LATINO,ARM1,Treatment 1,ARM1,Treatment 1,TV,2025-11-07,16
STUDY001,DM,STUDY001-SUBJ0055,SUBJ0055,2025-06-01,2026-02-16,2025-11-24,2026-02-03,2025-05-28,2026-02-16,,,7,56,YEARS,M,ASIAN,NOT HISPANIC OR LATINO,ARM1,Treatment 1,ARM1,Treatment 1,GE,2025-03-08,26
STUDY001,DM,STUDY001-SUBJ0056,SUBJ0056,2025-08-18,2026-02-02,2025-07-12,2026-01-28,2025-04-05,2026-02-02,,,23,47,YEARS,F,BLACK OR AFRICAN AMERICAN,HISPANIC OR LATINO,ARM3,Treatment 3,ARM3,Treatment 3,BT,2025-10-27,20
STUDY001,DM,STUDY001-SUBJ0057,SUBJ0057,2025-09-19,2026-01-30,2025-09-29,2026-01-29,2025-06-19,2026-01-30,,,31,31,YEARS,M,BLACK OR AFRICAN AMERICAN,NOT HISPANIC OR LATINO,ARM3,Treatment 3,ARM3,Treatment 3,UY,2025-07-22,8
STUDY001,DM,STUDY001-SUBJ0058,SUBJ0058,2026-01-12,2026-02-03,2025-08-06,2026-01-30,2025-07-28,2026-02-03,,,49,49,YEARS,M,WHITE,HISPANIC OR LATINO,ARM2,Treatment 2,ARM2,Treatment 2,DE,2025-05-08,30
STUDY001,DM,STUDY001-SUBJ0059,SUBJ0059,2025-05-04,2026-01-29,2025-07-21,2026-02-08,2025-07-27,2026-01-29,,,10,73,YEARS,F,BLACK OR AFRICAN AMERICAN,HISPANIC OR LATINO,ARM3,Treatment 3,ARM3,Treatment 3,LB,2025-10-08,23
STUDY001,DM,STUDY001-SUBJ0060,SUBJ0060,2025-02-26,2026-02-03,2026-01-08,2026-01-22,2025-02-22,2026-02-03,,,32,80,YEARS,F,ASIAN,HISPANIC OR LATINO,ARM1,Treatment 1,ARM1,Treatment 1,RS,2026-01-16,26
STUDY001,DM,STUDY001-SUBJ0061,SUBJ0061,2025-04-17,2026-02-06,2025-08-27,2026-02-04,2025-09-12,2026-02-06,,,46,55,YEARS,F,BLACK OR AFRICAN AMERICAN,HISPANIC OR LATINO,ARM1,Treatment 1,ARM1,Treatment 1,GY,2025-06-07,29
STUDY001,DM,STUDY001-SUBJ0062,SUBJ0062,2025-02-26,2026-02-12,2025-04-18,2026-01-25,2025-04-29,2026-02-12,,,15,35,YEARS,F,AMERICAN INDIAN OR ALASKA NATIVE,HISPANIC OR LATINO,ARM3,Treatment 3,ARM3,Treatment 3,CG,2025-07-29,6
STUDY001,DM,STUDY001-SUBJ0063,SUBJ0063,2025-08-20,2026-01-27,2025-02-23,2026-01-27,2025-10-26,2026-01-27,,,11,56,YEARS,F,AMERICAN INDIAN OR ALASKA NATIVE,HISPANIC OR LATINO,ARM1,Treatment 1,ARM1,Treatment 1,MV,2025-02-19,30
STUDY001,DM,STUDY001-SUBJ0064,SUBJ0064,2026-01-08,2026-02-03,2025-10-06,2026-01-30,2025-09-12,2026-02-03,,,7,48,YEARS,F,ASIAN,HISPANIC OR LATINO,ARM1,Treatment 1,ARM1,Treatment 1,LA,2025-03-21,8
STUDY001,DM,STUDY001-SUBJ0065,SUBJ0065,2025-05-09,2026-02-01,2025-12-30,2026-01-24,2025-08-25,2026-02-01,,,19,68,YEARS,M,WHITE,HISPANIC OR LATINO,ARM1,Treatment 1,ARM1,Treatment 1,GR,2025-03-03,22
STUDY001,DM,STUDY001-SUBJ0066,SUBJ0066,2025-06-02,2026-01-24,2025-11-19,2026-02-11,2025-11-05,2026-01-24,,,28,52,YEARS,M,WHITE,HISPANIC OR LATINO,ARM1,Treatment 1,ARM2,Treatment 2,VU,2025-10-17,6
STUDY001,DM,STUDY001-SUBJ0067,SUBJ0067,2025-07-10,2026-02-16,2025-08-16,2026-01-24,2025-12-13,2026-02-16,,,4,60,YEARS,M,AMERICAN INDIAN OR ALASKA NATIVE,NOT HISPANIC OR LATINO,ARM2,Treatment 2,ARM2,Treatment 2,LK,2025-10-16,14
STUDY001,DM,STUDY001-SUBJ0068,SUBJ0068,2025-08-11,2026-02-16,2026-01-10,2026-02-09,2025-12-17,2026-02-16,,,12,51,YEARS,M,ASIAN,NOT HISPANIC OR LATINO,ARM3,Treatment 3,ARM3,Treatment 3,VA,2025-08-13,25
STUDY001,DM,STUDY001-SUBJ0069,SUBJ0069,2025-12-12,2026-02-09,2025-04-30,2026-02-07,2025-06-20,2026-02-09,,,12,57,YEARS,F,AMERICAN INDIAN OR ALASKA NATIVE,NOT HISPANIC OR LATINO,ARM1,Treatment 1,ARM1,Treatment 1,ER,2025-07-10,22
STUDY001,DM,STUDY001-SUBJ0070,SUBJ0070,2025-12-28,2026-02-02,2025-11-21,2026-01-29,2025-03-04,2026-02-02,,,38,25,YEARS,F,OTHER,HISPANIC OR LATINO,ARM2,Treatment 2,ARM2,Treatment 2,EE,2025-03-06,16
STUDY001,DM,STUDY001-SUBJ0071,SUBJ0071,2025-03-10,2026-02-09,2025-06-24,2026-02-14,2026-01-03,2026-02-09,,,27,25,YEARS,M,BLACK OR AFRICAN AMERICAN,HISPANIC OR LATINO,ARM1,Treatment 1,ARM2,Treatment 2,VN,2025-07-27,1
STUDY001,DM,STUDY001-SUBJ0072,SUBJ0072,2025-02-24,2026-02-11,2025-09-20,2026-01-19,2025-06-15,2026-02-11,,,42,47,YEARS,F,AMERICAN INDIAN OR ALASKA NATIVE,HISPANIC OR LATINO,ARM3,Treatment 3,ARM3,Treatment 3,MD,2025-05-08,26
STUDY001,DM,STUDY001-SUBJ0073,SUBJ0073,2025-08-25,2026-02-15,2025-08-30,2026-01-23,2025-12-21,2026-02-15,,,12,43,YEARS,M,OTHER,HISPANIC OR LATINO,ARM3,Treatment 3,ARM3,Treatment 3,PS,2025-10-23,8
STUDY001,DM,STUDY001-SUBJ0074,SUBJ0074,2025-11-21,2026-02-02,2025-10-30,2026-01-19,2025-11-24,2026-02-02,,,30,76,YEARS,M,ASIAN,HISPANIC OR LATINO,ARM3,Treatment 3,ARM3,Treatment 3,CZ,2025-04-10,10
STUDY001,DM,STUDY001-SUBJ0075,SUBJ0075,2025-07-12,2026-01-25,2025-07-01,2026-02-05,2025-05-30,2026-01-25,,,18,23,YEARS,F,AMERICAN INDIAN OR ALASKA NATIVE,HISPANIC OR LATINO,ARM3,Treatment 3,ARM3,Treatment 3,TM,2025-10-05,25
STUDY001,DM,STUDY001-SUBJ0076,SUBJ0076,2025-03-20,2026-02-06,2025-10-01,2026-02-13,2025-03-18,2026-02-06,,,36,66,YEARS,F,WHITE,NOT HISPANIC OR LATINO,ARM2,Treatment 2,ARM2,Treatment 2,PW,2025-09-30,24
STUDY001,DM,STUDY001-SUBJ0077,SUBJ0077,2025-07-30,2026-01-25,2025-11-29,2026-01-23,2025-05-05,2026-01-25,,,29,62,YEARS,F,AMERICAN INDIAN OR ALASKA NATIVE,NOT HISPANIC OR LATINO,ARM2,Treatment 2,ARM2,Treatment 2,BG,2025-05-18,27
STUDY001,DM,STUDY001-SUBJ0078,SUBJ0078,2025-07-06,2026-01-18,2025-08-22,2026-01-28,2025-07-21,2026-01-18,,,46,55,YEARS,M,ASIAN,HISPANIC OR LATINO,ARM1,Treatment 1,ARM1,Treatment 1,AL,2025-09-15,27
STUDY001,DM,STUDY001-SUBJ0079,SUBJ0079,2025-03-06,2026-01-30,2025-04-29,2026-01-18,2026-01-01,2026-01-30,,,36,42,YEARS,M,OTHER,NOT HISPANIC OR LATINO,ARM1,Treatment 1,ARM1,Treatment 1,SD,2025-07-15,29
STUDY001,DM,STUDY001-SUBJ0080,SUBJ0080,2025-03-27,2026-01-25,2025-03-29,2026-01-19,2025-05-13,2026-01-25,,,45,34,YEARS,F,BLACK OR AFRICAN AMERICAN,NOT HISPANIC OR LATINO,ARM2,Treatment 2,ARM2,Treatment 2,SL,2025-08-24,28
STUDY001,DM,STUDY001-SUBJ0081,SUBJ0081,2025-12-16,2026-02-03,2025-07-01,2026-01-25,2025-12-18,2026-02-03,,,50,36,YEARS,M,OTHER,NOT HISPANIC OR LATINO,ARM3,Treatment 3,ARM3,Treatment 3,BJ,2025-11-14,20
STUDY001,DM,STUDY001-SUBJ0082,SUBJ0082,2025-05-09,2026-01-26,2025-04-24,2026-02-09,2025-03-21,2026-01-26,,,34,42,YEARS,F,OTHER,NOT HISPANIC OR LATINO,ARM2,Treatment 2,ARM2,Treatment 2,GH,2025-02-16,6
STUDY001,DM,STUDY001-SUBJ0083,SUBJ0083,2025-04-17,2026-02-09,2025-06-30,2026-01-23,2025-04-19,2026-02-09,,,18,40,YEARS,F,WHITE,NOT HISPANIC OR LATINO,ARM1,Treatment 1,ARM1,Treatment 1,SY,2025-09-11,9
STUDY001,DM,STUDY001-SUBJ0084,SUBJ0084,2025-12-31,2026-02-15,2025-05-15,2026-01-26,2025-08-27,2026-02-15,,,47,78,YEARS,M,WHITE,NOT HISPANIC OR LATINO,ARM1,Treatment 1,ARM1,Treatment 1,EG,2025-03-27,21
STUDY001,DM,STUDY001-SUBJ0085,SUBJ0085,2025-03-30,2026-02-04,2025-05-08,2026-01-24,2025-10-24,2026-02-04,,,26,57,YEARS,M,BLACK OR AFRICAN AMERICAN,NOT HISPANIC OR LATINO,ARM2,Treatment 2,ARM2,Treatment 2,OM,2025-02-24,21
STUDY001,DM,STUDY001-SUBJ0086,SUBJ0086,2025-04-26,2026-02-13,2025-12-17,2026-01-25,2025-05-26,2026-02-13,,,4,80,YEARS,F,OTHER,NOT HISPANIC OR LATINO,ARM3,Treatment 3,ARM3,Treatment 3,YE,2025-02-24,30
STUDY001,DM,STUDY001-SUBJ0087,SUBJ0087,2025-03-08,2026-02-12,2025-12-07,2026-02-03,2025-12-07,2026-02-12,,,25,35,YEARS,M,ASIAN,HISPANIC OR LATINO,ARM3,Treatment 3,ARM3,Treatment 3,AR,2025-07-10,10
STUDY001,DM,STUDY001-SUBJ0088,SUBJ0088,2026-01-09,2026-01-30,2025-06-11,2026-02-02,2025-11-18,2026-01-30,,,34,74,YEARS,F,OTHER,NOT HISPANIC OR LATINO,ARM3,Treatment 3,ARM3,Treatment 3,TO,2025-11-15,3
STUDY001,DM,STUDY001-SUBJ0089,SUBJ0089,2025-12-22,2026-02-07,2025-05-12,2026-02-04,2025-10-11,2026-02-07,,,7,46,YEARS,M,OTHER,NOT HISPANIC OR LATINO,ARM1,Treatment 1,ARM1,Treatment 1,CI,2025-04-16,7
STUDY001,DM,STUDY001-SUBJ0090,SUBJ0090,2025-07-01,2026-02-09,2025-10-01,2026-02-06,2025-05-07,2026-02-09,,,43,79,YEARS,M,WHITE,NOT HISPANIC OR LATINO,ARM2,Treatment 2,ARM2,Treatment 2,GH,2025-03-07,18
STUDY001,DM,STUDY001-SUBJ0091,SUBJ0091,2025-03-22,2026-02-06,2025-06-09,2026-01-18,2025-05-28,2026-02-06,,,4,69,YEARS,M,ASIAN,NOT HISPANIC OR LATINO,ARM3,Treatment 3,ARM3,Treatment 3,GT,2025-08-26,26
STUDY001,DM,STUDY001-SUBJ0092,SUBJ0092,2025-10-12,2026-01-29,2025-11-14,2026-01-22,2025-03-31,2026-01-29,,,43,37,YEARS,M,BLACK OR AFRICAN AMERICAN,HISPANIC OR LATINO,ARM1,Treatment 1,ARM1,Treatment 1,IN,2025-09-14,12
STUDY001,DM,STUDY001-SUBJ0093,SUBJ0093,2025-05-22,2026-02-13,2025-11-06,2026-01-29,2025-10-03,2026-02-13,,,4,79,YEARS,F,WHITE,HISPANIC OR LATINO,ARM3,Treatment 3,ARM3,Treatment 3,NG,2025-11-25,17
STUDY001,DM,STUDY001-SUBJ0094,SUBJ0094,2025-06-29,2026-01-31,2025-06-20,2026-01-27,2025-11-06,2026-01-31,,,8,65,YEARS,F,OTHER,HISPANIC OR LATINO,ARM1,Treatment 1,ARM1,Treatment 1,TZ,2025-07-15,21
STUDY001,DM,STUDY001-SUBJ0095,SUBJ0095,2025-10-28,2026-02-14,2025-05-27,2026-02-09,2025-02-18,2026-02-14,,,19,28,YEARS,F,BLACK OR AFRICAN AMERICAN,NOT HISPANIC OR LATINO,ARM1,Treatment 1,ARM1,Treatment 1,SA,2025-04-21,29
STUDY001,DM,STUDY001-SUBJ0096,SUBJ0096,2025-05-08,2026-01-20,2025-06-24,2026-02-11,2025-09-17,2026-01-20,,,39,70,YEARS,F,WHITE,HISPANIC OR LATINO,ARM1,Treatment 1,ARM1,Treatment 1,ER,2025-03-01,2
STUDY001,DM,STUDY001-SUBJ0097,SUBJ0097,2025-11-01,2026-01-30,2025-09-12,2026-02-16,2025-03-06,2026-01-30,,,16,45,YEARS,M,ASIAN,HISPANIC OR LATINO,ARM3,Treatment 3,ARM3,Treatment 3,ES,2025-11-15,4
STUDY001,DM,STUDY001-SUBJ0098,SUBJ0098,2025-10-12,2026-02-11,2025-04-16,2026-01-29,2025-12-09,2026-02-11,,,7,20,YEARS,F,AMERICAN INDIAN OR ALASKA NATIVE,HISPANIC OR LATINO,ARM2,Treatment 2,ARM2,Treatment 2,ML,2026-01-09,14
STUDY001,DM,STUDY001-SUBJ0099,SUBJ0099,2025-11-21,2026-01-23,2025-10-04,2026-02-14,2025-06-12,2026-01-23,,,7,66,YEARS,F,ASIAN,NOT HISPANIC OR LATINO,ARM3,Treatment 3,ARM3,Treatment 3,HT,2025-09-14,30
STUDY001,DM,STUDY001-SUBJ0100,SUBJ0100,2025-10-03,2026-01-19,2025-02-18,2026-02-15,2025-08-16,2026-01-19,,,28,32,YEARS,F,BLACK OR AFRICAN AMERICAN,NOT HISPANIC OR LATINO,ARM3,Treatment 3,ARM3,Treatment 3,FM,2025-12-01,20
